#   2H + 116Sn elastic scattering Elab=183 Mev
# --------- Optical Potential ---------  
#     r(fm)       V(MeV)       W(MeV)
       0.00       -39.0767       -17.0186
       0.01       -39.0767       -17.0186
       0.02       -39.0766       -17.0186
       0.03       -39.0766       -17.0186
       0.04       -39.0765       -17.0186
       0.05       -39.0765       -17.0186
       0.06       -39.0765       -17.0185
       0.07       -39.0765       -17.0185
       0.08       -39.0765       -17.0185
       0.09       -39.0766       -17.0185
       0.10       -39.0766       -17.0185
       0.11       -39.0767       -17.0185
       0.12       -39.0767       -17.0184
       0.13       -39.0768       -17.0184
       0.14       -39.0769       -17.0184
       0.15       -39.0770       -17.0184
       0.16       -39.0772       -17.0184
       0.17       -39.0773       -17.0183
       0.18       -39.0774       -17.0183
       0.19       -39.0776       -17.0183
       0.20       -39.0778       -17.0183
       0.21       -39.0780       -17.0183
       0.22       -39.0782       -17.0182
       0.23       -39.0784       -17.0182
       0.24       -39.0786       -17.0182
       0.25       -39.0788       -17.0182
       0.26       -39.0791       -17.0182
       0.27       -39.0794       -17.0181
       0.28       -39.0796       -17.0181
       0.29       -39.0799       -17.0181
       0.30       -39.0802       -17.0181
       0.31       -39.0806       -17.0180
       0.32       -39.0809       -17.0180
       0.33       -39.0812       -17.0180
       0.34       -39.0816       -17.0180
       0.35       -39.0819       -17.0180
       0.36       -39.0823       -17.0179
       0.37       -39.0827       -17.0179
       0.38       -39.0831       -17.0179
       0.39       -39.0835       -17.0179
       0.40       -39.0840       -17.0178
       0.41       -39.0844       -17.0178
       0.42       -39.0849       -17.0178
       0.43       -39.0853       -17.0178
       0.44       -39.0858       -17.0177
       0.45       -39.0863       -17.0177
       0.46       -39.0868       -17.0177
       0.47       -39.0873       -17.0176
       0.48       -39.0879       -17.0176
       0.49       -39.0884       -17.0176
       0.50       -39.0890       -17.0176
       0.51       -39.0895       -17.0175
       0.52       -39.0901       -17.0175
       0.53       -39.0907       -17.0175
       0.54       -39.0913       -17.0175
       0.55       -39.0919       -17.0174
       0.56       -39.0926       -17.0174
       0.57       -39.0932       -17.0174
       0.58       -39.0939       -17.0173
       0.59       -39.0945       -17.0173
       0.60       -39.0952       -17.0173
       0.61       -39.0959       -17.0172
       0.62       -39.0966       -17.0172
       0.63       -39.0973       -17.0172
       0.64       -39.0980       -17.0171
       0.65       -39.0988       -17.0171
       0.66       -39.0995       -17.0171
       0.67       -39.1003       -17.0170
       0.68       -39.1010       -17.0170
       0.69       -39.1018       -17.0170
       0.70       -39.1026       -17.0169
       0.71       -39.1034       -17.0169
       0.72       -39.1043       -17.0168
       0.73       -39.1051       -17.0168
       0.74       -39.1059       -17.0168
       0.75       -39.1068       -17.0167
       0.76       -39.1076       -17.0167
       0.77       -39.1085       -17.0167
       0.78       -39.1094       -17.0166
       0.79       -39.1103       -17.0166
       0.80       -39.1112       -17.0165
       0.81       -39.1122       -17.0165
       0.82       -39.1131       -17.0165
       0.83       -39.1140       -17.0164
       0.84       -39.1150       -17.0164
       0.85       -39.1160       -17.0163
       0.86       -39.1170       -17.0163
       0.87       -39.1180       -17.0163
       0.88       -39.1190       -17.0162
       0.89       -39.1200       -17.0162
       0.90       -39.1210       -17.0161
       0.91       -39.1220       -17.0161
       0.92       -39.1231       -17.0160
       0.93       -39.1242       -17.0160
       0.94       -39.1252       -17.0159
       0.95       -39.1263       -17.0159
       0.96       -39.1274       -17.0158
       0.97       -39.1285       -17.0158
       0.98       -39.1296       -17.0157
       0.99       -39.1307       -17.0157
       1.00       -39.1319       -17.0156
       1.01       -39.1330       -17.0156
       1.02       -39.1342       -17.0155
       1.03       -39.1354       -17.0155
       1.04       -39.1365       -17.0154
       1.05       -39.1377       -17.0154
       1.06       -39.1389       -17.0153
       1.07       -39.1401       -17.0153
       1.08       -39.1414       -17.0152
       1.09       -39.1426       -17.0152
       1.10       -39.1438       -17.0151
       1.11       -39.1451       -17.0150
       1.12       -39.1464       -17.0150
       1.13       -39.1476       -17.0149
       1.14       -39.1489       -17.0149
       1.15       -39.1502       -17.0148
       1.16       -39.1515       -17.0147
       1.17       -39.1528       -17.0147
       1.18       -39.1541       -17.0146
       1.19       -39.1555       -17.0146
       1.20       -39.1568       -17.0145
       1.21       -39.1582       -17.0144
       1.22       -39.1595       -17.0144
       1.23       -39.1609       -17.0143
       1.24       -39.1623       -17.0142
       1.25       -39.1637       -17.0142
       1.26       -39.1651       -17.0141
       1.27       -39.1665       -17.0140
       1.28       -39.1679       -17.0140
       1.29       -39.1693       -17.0139
       1.30       -39.1708       -17.0138
       1.31       -39.1722       -17.0137
       1.32       -39.1737       -17.0137
       1.33       -39.1751       -17.0136
       1.34       -39.1766       -17.0135
       1.35       -39.1781       -17.0134
       1.36       -39.1796       -17.0134
       1.37       -39.1811       -17.0133
       1.38       -39.1826       -17.0132
       1.39       -39.1841       -17.0131
       1.40       -39.1857       -17.0130
       1.41       -39.1872       -17.0130
       1.42       -39.1887       -17.0129
       1.43       -39.1903       -17.0128
       1.44       -39.1919       -17.0127
       1.45       -39.1934       -17.0126
       1.46       -39.1950       -17.0125
       1.47       -39.1966       -17.0125
       1.48       -39.1982       -17.0124
       1.49       -39.1998       -17.0123
       1.50       -39.2014       -17.0122
       1.51       -39.2030       -17.0121
       1.52       -39.2046       -17.0120
       1.53       -39.2063       -17.0119
       1.54       -39.2079       -17.0118
       1.55       -39.2096       -17.0117
       1.56       -39.2112       -17.0116
       1.57       -39.2129       -17.0115
       1.58       -39.2145       -17.0114
       1.59       -39.2162       -17.0113
       1.60       -39.2179       -17.0112
       1.61       -39.2196       -17.0111
       1.62       -39.2213       -17.0110
       1.63       -39.2230       -17.0109
       1.64       -39.2247       -17.0108
       1.65       -39.2264       -17.0107
       1.66       -39.2281       -17.0106
       1.67       -39.2299       -17.0105
       1.68       -39.2316       -17.0104
       1.69       -39.2334       -17.0103
       1.70       -39.2351       -17.0101
       1.71       -39.2369       -17.0100
       1.72       -39.2386       -17.0099
       1.73       -39.2404       -17.0098
       1.74       -39.2422       -17.0097
       1.75       -39.2439       -17.0096
       1.76       -39.2457       -17.0094
       1.77       -39.2475       -17.0093
       1.78       -39.2493       -17.0092
       1.79       -39.2511       -17.0091
       1.80       -39.2529       -17.0089
       1.81       -39.2547       -17.0088
       1.82       -39.2565       -17.0087
       1.83       -39.2584       -17.0085
       1.84       -39.2602       -17.0084
       1.85       -39.2620       -17.0083
       1.86       -39.2638       -17.0081
       1.87       -39.2657       -17.0080
       1.88       -39.2675       -17.0078
       1.89       -39.2694       -17.0077
       1.90       -39.2712       -17.0076
       1.91       -39.2731       -17.0074
       1.92       -39.2749       -17.0073
       1.93       -39.2768       -17.0071
       1.94       -39.2786       -17.0070
       1.95       -39.2805       -17.0068
       1.96       -39.2823       -17.0067
       1.97       -39.2842       -17.0065
       1.98       -39.2861       -17.0063
       1.99       -39.2880       -17.0062
       2.00       -39.2899       -17.0060
       2.01       -39.2917       -17.0059
       2.02       -39.2936       -17.0057
       2.03       -39.2955       -17.0055
       2.04       -39.2974       -17.0054
       2.05       -39.2993       -17.0052
       2.06       -39.3012       -17.0050
       2.07       -39.3031       -17.0048
       2.08       -39.3049       -17.0047
       2.09       -39.3068       -17.0045
       2.10       -39.3087       -17.0043
       2.11       -39.3106       -17.0041
       2.12       -39.3125       -17.0039
       2.13       -39.3144       -17.0037
       2.14       -39.3163       -17.0035
       2.15       -39.3182       -17.0033
       2.16       -39.3201       -17.0032
       2.17       -39.3220       -17.0030
       2.18       -39.3239       -17.0028
       2.19       -39.3258       -17.0026
       2.20       -39.3277       -17.0023
       2.21       -39.3296       -17.0021
       2.22       -39.3315       -17.0019
       2.23       -39.3334       -17.0017
       2.24       -39.3353       -17.0015
       2.25       -39.3371       -17.0013
       2.26       -39.3390       -17.0011
       2.27       -39.3409       -17.0009
       2.28       -39.3428       -17.0006
       2.29       -39.3447       -17.0004
       2.30       -39.3465       -17.0002
       2.31       -39.3484       -16.9999
       2.32       -39.3503       -16.9997
       2.33       -39.3521       -16.9995
       2.34       -39.3540       -16.9992
       2.35       -39.3559       -16.9990
       2.36       -39.3577       -16.9987
       2.37       -39.3596       -16.9985
       2.38       -39.3614       -16.9982
       2.39       -39.3632       -16.9980
       2.40       -39.3651       -16.9977
       2.41       -39.3669       -16.9975
       2.42       -39.3687       -16.9972
       2.43       -39.3705       -16.9969
       2.44       -39.3724       -16.9967
       2.45       -39.3742       -16.9964
       2.46       -39.3759       -16.9961
       2.47       -39.3777       -16.9958
       2.48       -39.3795       -16.9955
       2.49       -39.3813       -16.9953
       2.50       -39.3831       -16.9950
       2.51       -39.3848       -16.9947
       2.52       -39.3866       -16.9944
       2.53       -39.3883       -16.9941
       2.54       -39.3901       -16.9938
       2.55       -39.3918       -16.9935
       2.56       -39.3935       -16.9932
       2.57       -39.3952       -16.9929
       2.58       -39.3969       -16.9925
       2.59       -39.3986       -16.9922
       2.60       -39.4003       -16.9919
       2.61       -39.4019       -16.9916
       2.62       -39.4036       -16.9912
       2.63       -39.4053       -16.9909
       2.64       -39.4069       -16.9905
       2.65       -39.4085       -16.9902
       2.66       -39.4101       -16.9899
       2.67       -39.4117       -16.9895
       2.68       -39.4133       -16.9892
       2.69       -39.4149       -16.9888
       2.70       -39.4164       -16.9884
       2.71       -39.4179       -16.9880
       2.72       -39.4195       -16.9877
       2.73       -39.4210       -16.9873
       2.74       -39.4225       -16.9869
       2.75       -39.4240       -16.9865
       2.76       -39.4254       -16.9861
       2.77       -39.4269       -16.9857
       2.78       -39.4283       -16.9853
       2.79       -39.4297       -16.9849
       2.80       -39.4311       -16.9845
       2.81       -39.4325       -16.9841
       2.82       -39.4339       -16.9837
       2.83       -39.4352       -16.9833
       2.84       -39.4365       -16.9828
       2.85       -39.4378       -16.9824
       2.86       -39.4391       -16.9820
       2.87       -39.4404       -16.9815
       2.88       -39.4416       -16.9811
       2.89       -39.4429       -16.9806
       2.90       -39.4441       -16.9801
       2.91       -39.4453       -16.9797
       2.92       -39.4464       -16.9792
       2.93       -39.4476       -16.9787
       2.94       -39.4487       -16.9782
       2.95       -39.4498       -16.9778
       2.96       -39.4508       -16.9773
       2.97       -39.4519       -16.9768
       2.98       -39.4529       -16.9763
       2.99       -39.4539       -16.9757
       3.00       -39.4548       -16.9752
       3.01       -39.4558       -16.9747
       3.02       -39.4567       -16.9742
       3.03       -39.4575       -16.9737
       3.04       -39.4584       -16.9731
       3.05       -39.4592       -16.9726
       3.06       -39.4600       -16.9720
       3.07       -39.4608       -16.9714
       3.08       -39.4615       -16.9709
       3.09       -39.4622       -16.9703
       3.10       -39.4629       -16.9697
       3.11       -39.4635       -16.9691
       3.12       -39.4642       -16.9685
       3.13       -39.4647       -16.9679
       3.14       -39.4653       -16.9673
       3.15       -39.4658       -16.9667
       3.16       -39.4663       -16.9661
       3.17       -39.4667       -16.9655
       3.18       -39.4671       -16.9648
       3.19       -39.4675       -16.9642
       3.20       -39.4678       -16.9635
       3.21       -39.4681       -16.9629
       3.22       -39.4683       -16.9622
       3.23       -39.4685       -16.9615
       3.24       -39.4687       -16.9608
       3.25       -39.4689       -16.9601
       3.26       -39.4689       -16.9594
       3.27       -39.4690       -16.9587
       3.28       -39.4690       -16.9580
       3.29       -39.4690       -16.9573
       3.30       -39.4689       -16.9566
       3.31       -39.4688       -16.9558
       3.32       -39.4686       -16.9551
       3.33       -39.4684       -16.9543
       3.34       -39.4681       -16.9536
       3.35       -39.4678       -16.9528
       3.36       -39.4674       -16.9520
       3.37       -39.4670       -16.9512
       3.38       -39.4666       -16.9504
       3.39       -39.4661       -16.9496
       3.40       -39.4655       -16.9488
       3.41       -39.4649       -16.9479
       3.42       -39.4643       -16.9471
       3.43       -39.4635       -16.9462
       3.44       -39.4628       -16.9454
       3.45       -39.4619       -16.9445
       3.46       -39.4611       -16.9436
       3.47       -39.4601       -16.9427
       3.48       -39.4591       -16.9418
       3.49       -39.4581       -16.9409
       3.50       -39.4569       -16.9400
       3.51       -39.4558       -16.9391
       3.52       -39.4545       -16.9381
       3.53       -39.4532       -16.9372
       3.54       -39.4519       -16.9362
       3.55       -39.4504       -16.9352
       3.56       -39.4489       -16.9342
       3.57       -39.4474       -16.9332
       3.58       -39.4457       -16.9322
       3.59       -39.4441       -16.9312
       3.60       -39.4423       -16.9302
       3.61       -39.4405       -16.9291
       3.62       -39.4385       -16.9280
       3.63       -39.4366       -16.9270
       3.64       -39.4345       -16.9259
       3.65       -39.4324       -16.9248
       3.66       -39.4302       -16.9237
       3.67       -39.4279       -16.9226
       3.68       -39.4256       -16.9214
       3.69       -39.4231       -16.9203
       3.70       -39.4206       -16.9191
       3.71       -39.4180       -16.9179
       3.72       -39.4154       -16.9168
       3.73       -39.4126       -16.9155
       3.74       -39.4098       -16.9143
       3.75       -39.4068       -16.9131
       3.76       -39.4038       -16.9119
       3.77       -39.4007       -16.9106
       3.78       -39.3975       -16.9093
       3.79       -39.3943       -16.9080
       3.80       -39.3909       -16.9067
       3.81       -39.3874       -16.9054
       3.82       -39.3839       -16.9041
       3.83       -39.3802       -16.9027
       3.84       -39.3765       -16.9014
       3.85       -39.3726       -16.9000
       3.86       -39.3687       -16.8986
       3.87       -39.3646       -16.8972
       3.88       -39.3605       -16.8957
       3.89       -39.3562       -16.8943
       3.90       -39.3519       -16.8928
       3.91       -39.3474       -16.8913
       3.92       -39.3428       -16.8899
       3.93       -39.3381       -16.8883
       3.94       -39.3334       -16.8868
       3.95       -39.3285       -16.8853
       3.96       -39.3235       -16.8837
       3.97       -39.3183       -16.8821
       3.98       -39.3131       -16.8805
       3.99       -39.3077       -16.8789
       4.00       -39.3022       -16.8772
       4.01       -39.2966       -16.8756
       4.02       -39.2909       -16.8739
       4.03       -39.2851       -16.8722
       4.04       -39.2791       -16.8705
       4.05       -39.2730       -16.8687
       4.06       -39.2668       -16.8670
       4.07       -39.2604       -16.8652
       4.08       -39.2539       -16.8634
       4.09       -39.2473       -16.8616
       4.10       -39.2405       -16.8598
       4.11       -39.2336       -16.8579
       4.12       -39.2266       -16.8560
       4.13       -39.2194       -16.8541
       4.14       -39.2121       -16.8522
       4.15       -39.2046       -16.8502
       4.16       -39.1970       -16.8483
       4.17       -39.1892       -16.8463
       4.18       -39.1813       -16.8443
       4.19       -39.1733       -16.8422
       4.20       -39.1651       -16.8402
       4.21       -39.1567       -16.8381
       4.22       -39.1482       -16.8360
       4.23       -39.1395       -16.8338
       4.24       -39.1306       -16.8317
       4.25       -39.1216       -16.8295
       4.26       -39.1124       -16.8273
       4.27       -39.1031       -16.8250
       4.28       -39.0936       -16.8228
       4.29       -39.0839       -16.8205
       4.30       -39.0740       -16.8182
       4.31       -39.0640       -16.8158
       4.32       -39.0538       -16.8135
       4.33       -39.0434       -16.8111
       4.34       -39.0328       -16.8087
       4.35       -39.0220       -16.8062
       4.36       -39.0111       -16.8038
       4.37       -39.0000       -16.8013
       4.38       -38.9886       -16.7987
       4.39       -38.9771       -16.7962
       4.40       -38.9654       -16.7936
       4.41       -38.9535       -16.7910
       4.42       -38.9414       -16.7883
       4.43       -38.9290       -16.7856
       4.44       -38.9165       -16.7829
       4.45       -38.9038       -16.7802
       4.46       -38.8908       -16.7774
       4.47       -38.8777       -16.7746
       4.48       -38.8643       -16.7718
       4.49       -38.8507       -16.7689
       4.50       -38.8369       -16.7660
       4.51       -38.8229       -16.7631
       4.52       -38.8086       -16.7601
       4.53       -38.7941       -16.7571
       4.54       -38.7794       -16.7541
       4.55       -38.7645       -16.7510
       4.56       -38.7493       -16.7479
       4.57       -38.7339       -16.7448
       4.58       -38.7182       -16.7416
       4.59       -38.7023       -16.7384
       4.60       -38.6861       -16.7351
       4.61       -38.6697       -16.7318
       4.62       -38.6531       -16.7285
       4.63       -38.6362       -16.7252
       4.64       -38.6190       -16.7218
       4.65       -38.6016       -16.7183
       4.66       -38.5839       -16.7149
       4.67       -38.5659       -16.7114
       4.68       -38.5477       -16.7078
       4.69       -38.5292       -16.7042
       4.70       -38.5104       -16.7006
       4.71       -38.4913       -16.6969
       4.72       -38.4720       -16.6932
       4.73       -38.4524       -16.6894
       4.74       -38.4325       -16.6856
       4.75       -38.4123       -16.6818
       4.76       -38.3917       -16.6779
       4.77       -38.3710       -16.6740
       4.78       -38.3498       -16.6700
       4.79       -38.3284       -16.6660
       4.80       -38.3067       -16.6619
       4.81       -38.2847       -16.6578
       4.82       -38.2624       -16.6537
       4.83       -38.2397       -16.6495
       4.84       -38.2168       -16.6452
       4.85       -38.1935       -16.6409
       4.86       -38.1698       -16.6366
       4.87       -38.1459       -16.6322
       4.88       -38.1216       -16.6277
       4.89       -38.0970       -16.6232
       4.90       -38.0720       -16.6187
       4.91       -38.0467       -16.6141
       4.92       -38.0210       -16.6095
       4.93       -37.9950       -16.6048
       4.94       -37.9687       -16.6000
       4.95       -37.9419       -16.5952
       4.96       -37.9148       -16.5904
       4.97       -37.8874       -16.5855
       4.98       -37.8596       -16.5805
       4.99       -37.8314       -16.5755
       5.00       -37.8028       -16.5704
       5.01       -37.7738       -16.5653
       5.02       -37.7445       -16.5601
       5.03       -37.7148       -16.5548
       5.04       -37.6846       -16.5495
       5.05       -37.6541       -16.5442
       5.06       -37.6232       -16.5388
       5.07       -37.5919       -16.5333
       5.08       -37.5601       -16.5277
       5.09       -37.5280       -16.5221
       5.10       -37.4955       -16.5165
       5.11       -37.4625       -16.5107
       5.12       -37.4291       -16.5050
       5.13       -37.3952       -16.4991
       5.14       -37.3610       -16.4932
       5.15       -37.3263       -16.4872
       5.16       -37.2912       -16.4811
       5.17       -37.2556       -16.4750
       5.18       -37.2195       -16.4688
       5.19       -37.1831       -16.4626
       5.20       -37.1461       -16.4563
       5.21       -37.1088       -16.4499
       5.22       -37.0709       -16.4434
       5.23       -37.0326       -16.4369
       5.24       -36.9938       -16.4303
       5.25       -36.9545       -16.4236
       5.26       -36.9147       -16.4169
       5.27       -36.8745       -16.4101
       5.28       -36.8338       -16.4032
       5.29       -36.7926       -16.3962
       5.30       -36.7508       -16.3892
       5.31       -36.7086       -16.3821
       5.32       -36.6659       -16.3749
       5.33       -36.6227       -16.3676
       5.34       -36.5789       -16.3602
       5.35       -36.5347       -16.3528
       5.36       -36.4899       -16.3453
       5.37       -36.4446       -16.3377
       5.38       -36.3987       -16.3300
       5.39       -36.3523       -16.3223
       5.40       -36.3054       -16.3144
       5.41       -36.2579       -16.3065
       5.42       -36.2099       -16.2985
       5.43       -36.1614       -16.2904
       5.44       -36.1122       -16.2822
       5.45       -36.0626       -16.2739
       5.46       -36.0123       -16.2656
       5.47       -35.9615       -16.2571
       5.48       -35.9101       -16.2486
       5.49       -35.8581       -16.2400
       5.50       -35.8056       -16.2312
       5.51       -35.7525       -16.2224
       5.52       -35.6987       -16.2135
       5.53       -35.6444       -16.2045
       5.54       -35.5895       -16.1954
       5.55       -35.5340       -16.1862
       5.56       -35.4778       -16.1769
       5.57       -35.4211       -16.1675
       5.58       -35.3637       -16.1581
       5.59       -35.3058       -16.1485
       5.60       -35.2472       -16.1388
       5.61       -35.1879       -16.1290
       5.62       -35.1281       -16.1191
       5.63       -35.0676       -16.1091
       5.64       -35.0065       -16.0990
       5.65       -34.9447       -16.0888
       5.66       -34.8823       -16.0785
       5.67       -34.8192       -16.0680
       5.68       -34.7555       -16.0575
       5.69       -34.6911       -16.0469
       5.70       -34.6260       -16.0361
       5.71       -34.5603       -16.0253
       5.72       -34.4939       -16.0143
       5.73       -34.4269       -16.0032
       5.74       -34.3591       -15.9920
       5.75       -34.2907       -15.9807
       5.76       -34.2216       -15.9693
       5.77       -34.1518       -15.9577
       5.78       -34.0813       -15.9460
       5.79       -34.0101       -15.9342
       5.80       -33.9383       -15.9223
       5.81       -33.8657       -15.9103
       5.82       -33.7924       -15.8982
       5.83       -33.7184       -15.8859
       5.84       -33.6437       -15.8735
       5.85       -33.5683       -15.8609
       5.86       -33.4922       -15.8483
       5.87       -33.4153       -15.8355
       5.88       -33.3377       -15.8226
       5.89       -33.2594       -15.8096
       5.90       -33.1804       -15.7964
       5.91       -33.1006       -15.7831
       5.92       -33.0201       -15.7696
       5.93       -32.9389       -15.7561
       5.94       -32.8569       -15.7424
       5.95       -32.7742       -15.7285
       5.96       -32.6907       -15.7145
       5.97       -32.6065       -15.7004
       5.98       -32.5215       -15.6862
       5.99       -32.4358       -15.6718
       6.00       -32.3493       -15.6572
       6.01       -32.2621       -15.6425
       6.02       -32.1741       -15.6277
       6.03       -32.0854       -15.6127
       6.04       -31.9959       -15.5976
       6.05       -31.9056       -15.5824
       6.06       -31.8146       -15.5669
       6.07       -31.7228       -15.5514
       6.08       -31.6303       -15.5356
       6.09       -31.5369       -15.5198
       6.10       -31.4428       -15.5038
       6.11       -31.3480       -15.4876
       6.12       -31.2523       -15.4712
       6.13       -31.1559       -15.4548
       6.14       -31.0588       -15.4381
       6.15       -30.9608       -15.4213
       6.16       -30.8621       -15.4043
       6.17       -30.7626       -15.3872
       6.18       -30.6624       -15.3699
       6.19       -30.5613       -15.3525
       6.20       -30.4595       -15.3349
       6.21       -30.3569       -15.3171
       6.22       -30.2536       -15.2991
       6.23       -30.1495       -15.2810
       6.24       -30.0446       -15.2627
       6.25       -29.9389       -15.2443
       6.26       -29.8324       -15.2256
       6.27       -29.7252       -15.2068
       6.28       -29.6173       -15.1879
       6.29       -29.5085       -15.1687
       6.30       -29.3990       -15.1494
       6.31       -29.2888       -15.1299
       6.32       -29.1777       -15.1102
       6.33       -29.0659       -15.0904
       6.34       -28.9534       -15.0703
       6.35       -28.8401       -15.0501
       6.36       -28.7260       -15.0297
       6.37       -28.6112       -15.0091
       6.38       -28.4956       -14.9884
       6.39       -28.3793       -14.9674
       6.40       -28.2623       -14.9463
       6.41       -28.1445       -14.9250
       6.42       -28.0260       -14.9035
       6.43       -27.9067       -14.8818
       6.44       -27.7867       -14.8599
       6.45       -27.6660       -14.8378
       6.46       -27.5445       -14.8155
       6.47       -27.4224       -14.7931
       6.48       -27.2995       -14.7704
       6.49       -27.1759       -14.7475
       6.50       -27.0516       -14.7245
       6.51       -26.9266       -14.7012
       6.52       -26.8010       -14.6778
       6.53       -26.6746       -14.6541
       6.54       -26.5475       -14.6303
       6.55       -26.4198       -14.6062
       6.56       -26.2913       -14.5820
       6.57       -26.1622       -14.5575
       6.58       -26.0325       -14.5329
       6.59       -25.9020       -14.5080
       6.60       -25.7710       -14.4830
       6.61       -25.6393       -14.4577
       6.62       -25.5069       -14.4322
       6.63       -25.3739       -14.4065
       6.64       -25.2403       -14.3806
       6.65       -25.1060       -14.3545
       6.66       -24.9712       -14.3282
       6.67       -24.8357       -14.3017
       6.68       -24.6996       -14.2750
       6.69       -24.5630       -14.2480
       6.70       -24.4257       -14.2209
       6.71       -24.2879       -14.1935
       6.72       -24.1496       -14.1659
       6.73       -24.0106       -14.1381
       6.74       -23.8711       -14.1101
       6.75       -23.7311       -14.0818
       6.76       -23.5905       -14.0534
       6.77       -23.4494       -14.0247
       6.78       -23.3078       -13.9959
       6.79       -23.1657       -13.9668
       6.80       -23.0230       -13.9374
       6.81       -22.8799       -13.9079
       6.82       -22.7364       -13.8781
       6.83       -22.5923       -13.8482
       6.84       -22.4478       -13.8180
       6.85       -22.3028       -13.7875
       6.86       -22.1574       -13.7569
       6.87       -22.0115       -13.7260
       6.88       -21.8653       -13.6950
       6.89       -21.7186       -13.6637
       6.90       -21.5715       -13.6321
       6.91       -21.4240       -13.6004
       6.92       -21.2762       -13.5684
       6.93       -21.1280       -13.5362
       6.94       -20.9794       -13.5038
       6.95       -20.8305       -13.4712
       6.96       -20.6812       -13.4383
       6.97       -20.5316       -13.4052
       6.98       -20.3818       -13.3719
       6.99       -20.2316       -13.3384
       7.00       -20.0811       -13.3047
       7.01       -19.9303       -13.2707
       7.02       -19.7793       -13.2365
       7.03       -19.6280       -13.2021
       7.04       -19.4765       -13.1674
       7.05       -19.3248       -13.1326
       7.06       -19.1728       -13.0975
       7.07       -19.0206       -13.0622
       7.08       -18.8683       -13.0267
       7.09       -18.7157       -12.9909
       7.10       -18.5630       -12.9550
       7.11       -18.4101       -12.9188
       7.12       -18.2571       -12.8824
       7.13       -18.1040       -12.8458
       7.14       -17.9507       -12.8089
       7.15       -17.7973       -12.7719
       7.16       -17.6439       -12.7346
       7.17       -17.4903       -12.6971
       7.18       -17.3367       -12.6594
       7.19       -17.1830       -12.6215
       7.20       -17.0293       -12.5833
       7.21       -16.8755       -12.5450
       7.22       -16.7218       -12.5064
       7.23       -16.5680       -12.4676
       7.24       -16.4142       -12.4286
       7.25       -16.2605       -12.3895
       7.26       -16.1068       -12.3500
       7.27       -15.9531       -12.3104
       7.28       -15.7995       -12.2706
       7.29       -15.6459       -12.2306
       7.30       -15.4925       -12.1904
       7.31       -15.3391       -12.1499
       7.32       -15.1859       -12.1093
       7.33       -15.0327       -12.0685
       7.34       -14.8797       -12.0274
       7.35       -14.7269       -11.9862
       7.36       -14.5742       -11.9448
       7.37       -14.4217       -11.9031
       7.38       -14.2693       -11.8613
       7.39       -14.1172       -11.8193
       7.40       -13.9653       -11.7771
       7.41       -13.8136       -11.7347
       7.42       -13.6621       -11.6921
       7.43       -13.5109       -11.6493
       7.44       -13.3599       -11.6064
       7.45       -13.2092       -11.5633
       7.46       -13.0588       -11.5199
       7.47       -12.9086       -11.4764
       7.48       -12.7588       -11.4328
       7.49       -12.6093       -11.3889
       7.50       -12.4601       -11.3449
       7.51       -12.3113       -11.3007
       7.52       -12.1628       -11.2563
       7.53       -12.0147       -11.2118
       7.54       -11.8669       -11.1671
       7.55       -11.7196       -11.1223
       7.56       -11.5726       -11.0773
       7.57       -11.4260       -11.0321
       7.58       -11.2799       -10.9867
       7.59       -11.1342       -10.9413
       7.60       -10.9889       -10.8956
       7.61       -10.8440       -10.8498
       7.62       -10.6996       -10.8039
       7.63       -10.5558       -10.7578
       7.64       -10.4123       -10.7116
       7.65       -10.2694       -10.6652
       7.66       -10.1269       -10.6187
       7.67        -9.9850       -10.5721
       7.68        -9.8436       -10.5253
       7.69        -9.7027       -10.4784
       7.70        -9.5623       -10.4314
       7.71        -9.4225       -10.3843
       7.72        -9.2833       -10.3370
       7.73        -9.1446       -10.2896
       7.74        -9.0065       -10.2421
       7.75        -8.8689       -10.1945
       7.76        -8.7320       -10.1468
       7.77        -8.5956       -10.0989
       7.78        -8.4598       -10.0510
       7.79        -8.3247       -10.0030
       7.80        -8.1902        -9.9548
       7.81        -8.0563        -9.9066
       7.82        -7.9230        -9.8583
       7.83        -7.7904        -9.8099
       7.84        -7.6584        -9.7614
       7.85        -7.5271        -9.7128
       7.86        -7.3964        -9.6641
       7.87        -7.2664        -9.6154
       7.88        -7.1371        -9.5666
       7.89        -7.0085        -9.5177
       7.90        -6.8805        -9.4687
       7.91        -6.7533        -9.4197
       7.92        -6.6267        -9.3706
       7.93        -6.5008        -9.3215
       7.94        -6.3757        -9.2723
       7.95        -6.2513        -9.2231
       7.96        -6.1276        -9.1738
       7.97        -6.0046        -9.1245
       7.98        -5.8823        -9.0751
       7.99        -5.7608        -9.0257
       8.00        -5.6399        -8.9762
       8.01        -5.5198        -8.9267
       8.02        -5.4003        -8.8772
       8.03        -5.2816        -8.8277
       8.04        -5.1636        -8.7781
       8.05        -5.0462        -8.7286
       8.06        -4.9296        -8.6790
       8.07        -4.8138        -8.6294
       8.08        -4.6986        -8.5798
       8.09        -4.5842        -8.5302
       8.10        -4.4706        -8.4805
       8.11        -4.3576        -8.4309
       8.12        -4.2454        -8.3813
       8.13        -4.1339        -8.3317
       8.14        -4.0232        -8.2821
       8.15        -3.9132        -8.2326
       8.16        -3.8040        -8.1830
       8.17        -3.6955        -8.1335
       8.18        -3.5878        -8.0840
       8.19        -3.4808        -8.0345
       8.20        -3.3746        -7.9851
       8.21        -3.2692        -7.9357
       8.22        -3.1645        -7.8863
       8.23        -3.0605        -7.8370
       8.24        -2.9573        -7.7877
       8.25        -2.8549        -7.7384
       8.26        -2.7532        -7.6893
       8.27        -2.6523        -7.6401
       8.28        -2.5522        -7.5911
       8.29        -2.4528        -7.5421
       8.30        -2.3542        -7.4931
       8.31        -2.2563        -7.4443
       8.32        -2.1592        -7.3955
       8.33        -2.0629        -7.3467
       8.34        -1.9673        -7.2981
       8.35        -1.8725        -7.2495
       8.36        -1.7784        -7.2010
       8.37        -1.6851        -7.1527
       8.38        -1.5926        -7.1043
       8.39        -1.5008        -7.0561
       8.40        -1.4098        -7.0080
       8.41        -1.3195        -6.9600
       8.42        -1.2300        -6.9121
       8.43        -1.1413        -6.8643
       8.44        -1.0533        -6.8166
       8.45        -0.9660        -6.7690
       8.46        -0.8795        -6.7215
       8.47        -0.7938        -6.6741
       8.48        -0.7087        -6.6269
       8.49        -0.6245        -6.5798
       8.50        -0.5410        -6.5328
       8.51        -0.4582        -6.4859
       8.52        -0.3761        -6.4392
       8.53        -0.2948        -6.3926
       8.54        -0.2142        -6.3461
       8.55        -0.1344        -6.2997
       8.56    -5.5279E-02        -6.2535
       8.57     2.3112E-02        -6.2075
       8.58         0.1008        -6.1616
       8.59         0.1777        -6.1158
       8.60         0.2540        -6.0702
       8.61         0.3295        -6.0248
       8.62         0.4043        -5.9795
       8.63         0.4784        -5.9343
       8.64         0.5517        -5.8893
       8.65         0.6244        -5.8445
       8.66         0.6964        -5.7998
       8.67         0.7677        -5.7553
       8.68         0.8383        -5.7110
       8.69         0.9082        -5.6669
       8.70         0.9774        -5.6229
       8.71         1.0459        -5.5791
       8.72         1.1138        -5.5354
       8.73         1.1809        -5.4920
       8.74         1.2474        -5.4487
       8.75         1.3132        -5.4056
       8.76         1.3784        -5.3627
       8.77         1.4429        -5.3199
       8.78         1.5067        -5.2774
       8.79         1.5699        -5.2350
       8.80         1.6324        -5.1929
       8.81         1.6943        -5.1509
       8.82         1.7555        -5.1091
       8.83         1.8161        -5.0675
       8.84         1.8761        -5.0261
       8.85         1.9354        -4.9849
       8.86         1.9941        -4.9439
       8.87         2.0522        -4.9031
       8.88         2.1096        -4.8625
       8.89         2.1664        -4.8221
       8.90         2.2226        -4.7819
       8.91         2.2782        -4.7419
       8.92         2.3332        -4.7022
       8.93         2.3876        -4.6626
       8.94         2.4414        -4.6232
       8.95         2.4947        -4.5841
       8.96         2.5473        -4.5451
       8.97         2.5993        -4.5064
       8.98         2.6508        -4.4679
       8.99         2.7016        -4.4296
       9.00         2.7519        -4.3915
       9.01         2.8017        -4.3536
       9.02         2.8509        -4.3159
       9.03         2.8995        -4.2785
       9.04         2.9475        -4.2412
       9.05         2.9950        -4.2042
       9.06         3.0420        -4.1674
       9.07         3.0884        -4.1308
       9.08         3.1343        -4.0945
       9.09         3.1796        -4.0583
       9.10         3.2244        -4.0224
       9.11         3.2687        -3.9867
       9.12         3.3125        -3.9512
       9.13         3.3557        -3.9160
       9.14         3.3984        -3.8809
       9.15         3.4407        -3.8461
       9.16         3.4824        -3.8115
       9.17         3.5236        -3.7771
       9.18         3.5643        -3.7430
       9.19         3.6045        -3.7091
       9.20         3.6443        -3.6753
       9.21         3.6835        -3.6419
       9.22         3.7223        -3.6086
       9.23         3.7606        -3.5756
       9.24         3.7984        -3.5427
       9.25         3.8357        -3.5102
       9.26         3.8726        -3.4778
       9.27         3.9090        -3.4456
       9.28         3.9450        -3.4137
       9.29         3.9805        -3.3820
       9.30         4.0156        -3.3505
       9.31         4.0502        -3.3193
       9.32         4.0844        -3.2882
       9.33         4.1182        -3.2574
       9.34         4.1515        -3.2268
       9.35         4.1844        -3.1964
       9.36         4.2168        -3.1663
       9.37         4.2489        -3.1363
       9.38         4.2805        -3.1066
       9.39         4.3117        -3.0771
       9.40         4.3425        -3.0478
       9.41         4.3729        -3.0188
       9.42         4.4029        -2.9899
       9.43         4.4325        -2.9613
       9.44         4.4617        -2.9329
       9.45         4.4906        -2.9047
       9.46         4.5190        -2.8767
       9.47         4.5470        -2.8490
       9.48         4.5747        -2.8214
       9.49         4.6020        -2.7941
       9.50         4.6289        -2.7670
       9.51         4.6555        -2.7401
       9.52         4.6817        -2.7134
       9.53         4.7075        -2.6869
       9.54         4.7330        -2.6606
       9.55         4.7581        -2.6346
       9.56         4.7829        -2.6087
       9.57         4.8073        -2.5831
       9.58         4.8314        -2.5576
       9.59         4.8552        -2.5324
       9.60         4.8786        -2.5074
       9.61         4.9016        -2.4825
       9.62         4.9244        -2.4579
       9.63         4.9468        -2.4335
       9.64         4.9689        -2.4093
       9.65         4.9907        -2.3853
       9.66         5.0122        -2.3615
       9.67         5.0333        -2.3379
       9.68         5.0542        -2.3145
       9.69         5.0747        -2.2913
       9.70         5.0949        -2.2682
       9.71         5.1149        -2.2454
       9.72         5.1345        -2.2228
       9.73         5.1539        -2.2004
       9.74         5.1729        -2.1781
       9.75         5.1917        -2.1561
       9.76         5.2102        -2.1342
       9.77         5.2284        -2.1126
       9.78         5.2463        -2.0911
       9.79         5.2640        -2.0698
       9.80         5.2813        -2.0487
       9.81         5.2985        -2.0278
       9.82         5.3153        -2.0071
       9.83         5.3319        -1.9865
       9.84         5.3482        -1.9661
       9.85         5.3643        -1.9460
       9.86         5.3801        -1.9260
       9.87         5.3956        -1.9061
       9.88         5.4109        -1.8865
       9.89         5.4260        -1.8670
       9.90         5.4408        -1.8477
       9.91         5.4554        -1.8286
       9.92         5.4697        -1.8097
       9.93         5.4838        -1.7909
       9.94         5.4977        -1.7723
       9.95         5.5114        -1.7539
       9.96         5.5248        -1.7357
       9.97         5.5380        -1.7176
       9.98         5.5509        -1.6997
       9.99         5.5637        -1.6819
      10.00         5.5762        -1.6643
      10.01         5.5885        -1.6469
      10.02         5.6006        -1.6296
      10.03         5.6125        -1.6125
      10.04         5.6242        -1.5956
      10.05         5.6357        -1.5788
      10.06         5.6469        -1.5622
      10.07         5.6580        -1.5458
      10.08         5.6689        -1.5294
      10.09         5.6796        -1.5133
      10.10         5.6901        -1.4973
      10.11         5.7003        -1.4815
      10.12         5.7104        -1.4658
      10.13         5.7204        -1.4502
      10.14         5.7301        -1.4348
      10.15         5.7396        -1.4196
      10.16         5.7490        -1.4045
      10.17         5.7582        -1.3896
      10.18         5.7672        -1.3748
      10.19         5.7760        -1.3601
      10.20         5.7847        -1.3456
      10.21         5.7932        -1.3312
      10.22         5.8015        -1.3170
      10.23         5.8097        -1.3029
      10.24         5.8177        -1.2889
      10.25         5.8255        -1.2751
      10.26         5.8332        -1.2614
      10.27         5.8407        -1.2479
      10.28         5.8481        -1.2345
      10.29         5.8553        -1.2212
      10.30         5.8623        -1.2080
      10.31         5.8692        -1.1950
      10.32         5.8760        -1.1821
      10.33         5.8826        -1.1694
      10.34         5.8890        -1.1568
      10.35         5.8953        -1.1442
      10.36         5.9015        -1.1319
      10.37         5.9075        -1.1196
      10.38         5.9134        -1.1075
      10.39         5.9192        -1.0955
      10.40         5.9248        -1.0836
      10.41         5.9303        -1.0718
      10.42         5.9356        -1.0602
      10.43         5.9409        -1.0486
      10.44         5.9460        -1.0372
      10.45         5.9509        -1.0259
      10.46         5.9558        -1.0148
      10.47         5.9605        -1.0037
      10.48         5.9651        -0.9927
      10.49         5.9696        -0.9819
      10.50         5.9739        -0.9712
      10.51         5.9782        -0.9606
      10.52         5.9823        -0.9500
      10.53         5.9863        -0.9396
      10.54         5.9902        -0.9293
      10.55         5.9940        -0.9192
      10.56         5.9976        -0.9091
      10.57         6.0012        -0.8991
      10.58         6.0046        -0.8892
      10.59         6.0080        -0.8795
      10.60         6.0112        -0.8698
      10.61         6.0143        -0.8602
      10.62         6.0174        -0.8507
      10.63         6.0203        -0.8414
      10.64         6.0231        -0.8321
      10.65         6.0259        -0.8229
      10.66         6.0285        -0.8138
      10.67         6.0310        -0.8049
      10.68         6.0335        -0.7960
      10.69         6.0358        -0.7872
      10.70         6.0381        -0.7785
      10.71         6.0403        -0.7698
      10.72         6.0423        -0.7613
      10.73         6.0443        -0.7529
      10.74         6.0462        -0.7446
      10.75         6.0480        -0.7363
      10.76         6.0498        -0.7281
      10.77         6.0514        -0.7200
      10.78         6.0530        -0.7121
      10.79         6.0544        -0.7041
      10.80         6.0558        -0.6963
      10.81         6.0571        -0.6886
      10.82         6.0584        -0.6809
      10.83         6.0595        -0.6733
      10.84         6.0606        -0.6658
      10.85         6.0616        -0.6584
      10.86         6.0625        -0.6511
      10.87         6.0634        -0.6438
      10.88         6.0642        -0.6366
      10.89         6.0649        -0.6295
      10.90         6.0655        -0.6225
      10.91         6.0661        -0.6156
      10.92         6.0666        -0.6087
      10.93         6.0670        -0.6019
      10.94         6.0674        -0.5951
      10.95         6.0677        -0.5885
      10.96         6.0679        -0.5819
      10.97         6.0681        -0.5754
      10.98         6.0682        -0.5689
      10.99         6.0682        -0.5626
      11.00         6.0682        -0.5563
      11.01         6.0681        -0.5500
      11.02         6.0679        -0.5439
      11.03         6.0677        -0.5378
      11.04         6.0675        -0.5317
      11.05         6.0672        -0.5257
      11.06         6.0668        -0.5198
      11.07         6.0663        -0.5140
      11.08         6.0658        -0.5082
      11.09         6.0653        -0.5025
      11.10         6.0647        -0.4968
      11.11         6.0640        -0.4913
      11.12         6.0633        -0.4857
      11.13         6.0626        -0.4803
      11.14         6.0618        -0.4748
      11.15         6.0609        -0.4695
      11.16         6.0600        -0.4642
      11.17         6.0590        -0.4590
      11.18         6.0580        -0.4538
      11.19         6.0570        -0.4487
      11.20         6.0559        -0.4436
      11.21         6.0547        -0.4386
      11.22         6.0535        -0.4336
      11.23         6.0523        -0.4288
      11.24         6.0510        -0.4239
      11.25         6.0497        -0.4191
      11.26         6.0483        -0.4144
      11.27         6.0469        -0.4097
      11.28         6.0454        -0.4051
      11.29         6.0439        -0.4005
      11.30         6.0424        -0.3959
      11.31         6.0408        -0.3915
      11.32         6.0392        -0.3870
      11.33         6.0375        -0.3826
      11.34         6.0358        -0.3783
      11.35         6.0341        -0.3740
      11.36         6.0323        -0.3698
      11.37         6.0305        -0.3656
      11.38         6.0287        -0.3614
      11.39         6.0268        -0.3573
      11.40         6.0249        -0.3533
      11.41         6.0229        -0.3493
      11.42         6.0209        -0.3453
      11.43         6.0189        -0.3414
      11.44         6.0168        -0.3375
      11.45         6.0148        -0.3337
      11.46         6.0126        -0.3299
      11.47         6.0105        -0.3261
      11.48         6.0083        -0.3224
      11.49         6.0061        -0.3188
      11.50         6.0039        -0.3151
      11.51         6.0016        -0.3116
      11.52         5.9993        -0.3080
      11.53         5.9970        -0.3045
      11.54         5.9946        -0.3010
      11.55         5.9922        -0.2976
      11.56         5.9898        -0.2942
      11.57         5.9874        -0.2909
      11.58         5.9849        -0.2876
      11.59         5.9824        -0.2843
      11.60         5.9799        -0.2810
      11.61         5.9773        -0.2778
      11.62         5.9747        -0.2747
      11.63         5.9722        -0.2715
      11.64         5.9695        -0.2684
      11.65         5.9669        -0.2654
      11.66         5.9642        -0.2623
      11.67         5.9615        -0.2594
      11.68         5.9588        -0.2564
      11.69         5.9561        -0.2535
      11.70         5.9533        -0.2506
      11.71         5.9505        -0.2477
      11.72         5.9477        -0.2449
      11.73         5.9449        -0.2421
      11.74         5.9421        -0.2393
      11.75         5.9392        -0.2366
      11.76         5.9363        -0.2339
      11.77         5.9334        -0.2312
      11.78         5.9305        -0.2286
      11.79         5.9275        -0.2260
      11.80         5.9246        -0.2234
      11.81         5.9216        -0.2208
      11.82         5.9186        -0.2183
      11.83         5.9156        -0.2158
      11.84         5.9125        -0.2133
      11.85         5.9095        -0.2109
      11.86         5.9064        -0.2085
      11.87         5.9033        -0.2061
      11.88         5.9002        -0.2037
      11.89         5.8971        -0.2014
      11.90         5.8940        -0.1991
      11.91         5.8908        -0.1968
      11.92         5.8877        -0.1945
      11.93         5.8845        -0.1923
      11.94         5.8813        -0.1901
      11.95         5.8781        -0.1879
      11.96         5.8749        -0.1858
      11.97         5.8716        -0.1837
      11.98         5.8684        -0.1815
      11.99         5.8651        -0.1795
      12.00         5.8618        -0.1774
      12.01         5.8586        -0.1754
      12.02         5.8552        -0.1734
      12.03         5.8519        -0.1714
      12.04         5.8486        -0.1694
      12.05         5.8453        -0.1675
      12.06         5.8419        -0.1655
      12.07         5.8386        -0.1636
      12.08         5.8352        -0.1618
      12.09         5.8318        -0.1599
      12.10         5.8284        -0.1581
      12.11         5.8250        -0.1563
      12.12         5.8216        -0.1545
      12.13         5.8181        -0.1527
      12.14         5.8147        -0.1509
      12.15         5.8113        -0.1492
      12.16         5.8078        -0.1475
      12.17         5.8043        -0.1458
      12.18         5.8009        -0.1441
      12.19         5.7974        -0.1425
      12.20         5.7939        -0.1408
      12.21         5.7904        -0.1392
      12.22         5.7869        -0.1376
      12.23         5.7833        -0.1360
      12.24         5.7798        -0.1345
      12.25         5.7763        -0.1329
      12.26         5.7727        -0.1314
      12.27         5.7692        -0.1299
      12.28         5.7656        -0.1284
      12.29         5.7621        -0.1269
      12.30         5.7585        -0.1254
      12.31         5.7549        -0.1240
      12.32         5.7513        -0.1226
      12.33         5.7477        -0.1212
      12.34         5.7441        -0.1198
      12.35         5.7405        -0.1184
      12.36         5.7369        -0.1170
      12.37         5.7333        -0.1157
      12.38         5.7297        -0.1144
      12.39         5.7260        -0.1130
      12.40         5.7224        -0.1117
      12.41         5.7188        -0.1104
      12.42         5.7151        -0.1092
      12.43         5.7115        -0.1079
      12.44         5.7078        -0.1067
      12.45         5.7042        -0.1054
      12.46         5.7005        -0.1042
      12.47         5.6968        -0.1030
      12.48         5.6931        -0.1018
      12.49         5.6895        -0.1007
      12.50         5.6858    -9.9515E-02
      12.51         5.6821    -9.8368E-02
      12.52         5.6784    -9.7235E-02
      12.53         5.6747    -9.6115E-02
      12.54         5.6710    -9.5007E-02
      12.55         5.6673    -9.3912E-02
      12.56         5.6636    -9.2830E-02
      12.57         5.6599    -9.1760E-02
      12.58         5.6562    -9.0703E-02
      12.59         5.6525    -8.9657E-02
      12.60         5.6487    -8.8624E-02
      12.61         5.6450    -8.7602E-02
      12.62         5.6413    -8.6592E-02
      12.63         5.6376    -8.5594E-02
      12.64         5.6338    -8.4607E-02
      12.65         5.6301    -8.3631E-02
      12.66         5.6264    -8.2667E-02
      12.67         5.6226    -8.1714E-02
      12.68         5.6189    -8.0771E-02
      12.69         5.6151    -7.9840E-02
      12.70         5.6114    -7.8919E-02
      12.71         5.6077    -7.8009E-02
      12.72         5.6039    -7.7109E-02
      12.73         5.6002    -7.6219E-02
      12.74         5.5964    -7.5340E-02
      12.75         5.5927    -7.4471E-02
      12.76         5.5889    -7.3612E-02
      12.77         5.5852    -7.2762E-02
      12.78         5.5814    -7.1923E-02
      12.79         5.5776    -7.1093E-02
      12.80         5.5739    -7.0272E-02
      12.81         5.5701    -6.9461E-02
      12.82         5.5664    -6.8660E-02
      12.83         5.5626    -6.7867E-02
      12.84         5.5588    -6.7084E-02
      12.85         5.5551    -6.6310E-02
      12.86         5.5513    -6.5544E-02
      12.87         5.5475    -6.4788E-02
      12.88         5.5438    -6.4040E-02
      12.89         5.5400    -6.3301E-02
      12.90         5.5362    -6.2570E-02
      12.91         5.5325    -6.1847E-02
      12.92         5.5287    -6.1133E-02
      12.93         5.5249    -6.0427E-02
      12.94         5.5212    -5.9730E-02
      12.95         5.5174    -5.9040E-02
      12.96         5.5136    -5.8358E-02
      12.97         5.5099    -5.7684E-02
      12.98         5.5061    -5.7018E-02
      12.99         5.5024    -5.6360E-02
      13.00         5.4986    -5.5709E-02
      13.01         5.4948    -5.5065E-02
      13.02         5.4911    -5.4429E-02
      13.03         5.4873    -5.3801E-02
      13.04         5.4835    -5.3179E-02
      13.05         5.4798    -5.2565E-02
      13.06         5.4760    -5.1958E-02
      13.07         5.4722    -5.1357E-02
      13.08         5.4685    -5.0764E-02
      13.09         5.4647    -5.0177E-02
      13.10         5.4610    -4.9598E-02
      13.11         5.4572    -4.9025E-02
      13.12         5.4534    -4.8458E-02
      13.13         5.4497    -4.7898E-02
      13.14         5.4459    -4.7345E-02
      13.15         5.4422    -4.6798E-02
      13.16         5.4384    -4.6257E-02
      13.17         5.4347    -4.5722E-02
      13.18         5.4309    -4.5194E-02
      13.19         5.4272    -4.4672E-02
      13.20         5.4234    -4.4155E-02
      13.21         5.4197    -4.3645E-02
      13.22         5.4159    -4.3141E-02
      13.23         5.4122    -4.2642E-02
      13.24         5.4085    -4.2149E-02
      13.25         5.4047    -4.1662E-02
      13.26         5.4010    -4.1180E-02
      13.27         5.3973    -4.0704E-02
      13.28         5.3935    -4.0234E-02
      13.29         5.3898    -3.9769E-02
      13.30         5.3861    -3.9309E-02
      13.31         5.3823    -3.8854E-02
      13.32         5.3786    -3.8405E-02
      13.33         5.3749    -3.7961E-02
      13.34         5.3712    -3.7522E-02
      13.35         5.3674    -3.7088E-02
      13.36         5.3637    -3.6660E-02
      13.37         5.3600    -3.6236E-02
      13.38         5.3563    -3.5817E-02
      13.39         5.3526    -3.5403E-02
      13.40         5.3489    -3.4993E-02
      13.41         5.3452    -3.4589E-02
      13.42         5.3414    -3.4189E-02
      13.43         5.3377    -3.3793E-02
      13.44         5.3340    -3.3402E-02
      13.45         5.3303    -3.3016E-02
      13.46         5.3267    -3.2634E-02
      13.47         5.3230    -3.2257E-02
      13.48         5.3193    -3.1884E-02
      13.49         5.3156    -3.1515E-02
      13.50         5.3119    -3.1150E-02
      13.51         5.3082    -3.0790E-02
      13.52         5.3045    -3.0434E-02
      13.53         5.3009    -3.0082E-02
      13.54         5.2972    -2.9734E-02
      13.55         5.2935    -2.9390E-02
      13.56         5.2898    -2.9050E-02
      13.57         5.2862    -2.8714E-02
      13.58         5.2825    -2.8382E-02
      13.59         5.2788    -2.8054E-02
      13.60         5.2752    -2.7729E-02
      13.61         5.2715    -2.7408E-02
      13.62         5.2679    -2.7091E-02
      13.63         5.2642    -2.6778E-02
      13.64         5.2606    -2.6468E-02
      13.65         5.2569    -2.6162E-02
      13.66         5.2533    -2.5859E-02
      13.67         5.2496    -2.5560E-02
      13.68         5.2460    -2.5264E-02
      13.69         5.2424    -2.4972E-02
      13.70         5.2387    -2.4683E-02
      13.71         5.2351    -2.4397E-02
      13.72         5.2315    -2.4115E-02
      13.73         5.2279    -2.3836E-02
      13.74         5.2242    -2.3560E-02
      13.75         5.2206    -2.3287E-02
      13.76         5.2170    -2.3018E-02
      13.77         5.2134    -2.2752E-02
      13.78         5.2098    -2.2488E-02
      13.79         5.2062    -2.2228E-02
      13.80         5.2026    -2.1971E-02
      13.81         5.1990    -2.1717E-02
      13.82         5.1954    -2.1465E-02
      13.83         5.1918    -2.1217E-02
      13.84         5.1882    -2.0971E-02
      13.85         5.1847    -2.0729E-02
      13.86         5.1811    -2.0489E-02
      13.87         5.1775    -2.0252E-02
      13.88         5.1739    -2.0017E-02
      13.89         5.1704    -1.9786E-02
      13.90         5.1668    -1.9557E-02
      13.91         5.1632    -1.9330E-02
      13.92         5.1597    -1.9106E-02
      13.93         5.1561    -1.8885E-02
      13.94         5.1526    -1.8667E-02
      13.95         5.1490    -1.8451E-02
      13.96         5.1455    -1.8237E-02
      13.97         5.1419    -1.8026E-02
      13.98         5.1384    -1.7817E-02
      13.99         5.1348    -1.7611E-02
      14.00         5.1313    -1.7407E-02
      14.01         5.1278    -1.7206E-02
      14.02         5.1242    -1.7007E-02
      14.03         5.1207    -1.6810E-02
      14.04         5.1172    -1.6615E-02
      14.05         5.1137    -1.6423E-02
      14.06         5.1102    -1.6233E-02
      14.07         5.1067    -1.6045E-02
      14.08         5.1032    -1.5859E-02
      14.09         5.0997    -1.5675E-02
      14.10         5.0962    -1.5494E-02
      14.11         5.0927    -1.5315E-02
      14.12         5.0892    -1.5137E-02
      14.13         5.0857    -1.4962E-02
      14.14         5.0822    -1.4789E-02
      14.15         5.0787    -1.4618E-02
      14.16         5.0753    -1.4448E-02
      14.17         5.0718    -1.4281E-02
      14.18         5.0683    -1.4116E-02
      14.19         5.0649    -1.3952E-02
      14.20         5.0614    -1.3791E-02
      14.21         5.0579    -1.3631E-02
      14.22         5.0545    -1.3473E-02
      14.23         5.0510    -1.3317E-02
      14.24         5.0476    -1.3163E-02
      14.25         5.0441    -1.3011E-02
      14.26         5.0407    -1.2860E-02
      14.27         5.0373    -1.2711E-02
      14.28         5.0338    -1.2564E-02
      14.29         5.0304    -1.2418E-02
      14.30         5.0270    -1.2275E-02
      14.31         5.0236    -1.2133E-02
      14.32         5.0201    -1.1992E-02
      14.33         5.0167    -1.1853E-02
      14.34         5.0133    -1.1716E-02
      14.35         5.0099    -1.1580E-02
      14.36         5.0065    -1.1446E-02
      14.37         5.0031    -1.1314E-02
      14.38         4.9997    -1.1183E-02
      14.39         4.9963    -1.1053E-02
      14.40         4.9929    -1.0925E-02
      14.41         4.9896    -1.0799E-02
      14.42         4.9862    -1.0674E-02
      14.43         4.9828    -1.0550E-02
      14.44         4.9794    -1.0428E-02
      14.45         4.9761    -1.0307E-02
      14.46         4.9727    -1.0188E-02
      14.47         4.9693    -1.0070E-02
      14.48         4.9660    -9.9531E-03
      14.49         4.9626    -9.8378E-03
      14.50         4.9593    -9.7239E-03
      14.51         4.9559    -9.6113E-03
      14.52         4.9526    -9.5000E-03
      14.53         4.9492    -9.3900E-03
      14.54         4.9459    -9.2812E-03
      14.55         4.9426    -9.1737E-03
      14.56         4.9393    -9.0675E-03
      14.57         4.9359    -8.9625E-03
      14.58         4.9326    -8.8587E-03
      14.59         4.9293    -8.7561E-03
      14.60         4.9260    -8.6547E-03
      14.61         4.9227    -8.5544E-03
      14.62         4.9194    -8.4554E-03
      14.63         4.9161    -8.3574E-03
      14.64         4.9128    -8.2606E-03
      14.65         4.9095    -8.1650E-03
      14.66         4.9062    -8.0704E-03
      14.67         4.9029    -7.9769E-03
      14.68         4.8996    -7.8845E-03
      14.69         4.8963    -7.7932E-03
      14.70         4.8931    -7.7030E-03
      14.71         4.8898    -7.6137E-03
      14.72         4.8865    -7.5256E-03
      14.73         4.8833    -7.4384E-03
      14.74         4.8800    -7.3522E-03
      14.75         4.8768    -7.2671E-03
      14.76         4.8735    -7.1829E-03
      14.77         4.8703    -7.0997E-03
      14.78         4.8670    -7.0175E-03
      14.79         4.8638    -6.9362E-03
      14.80         4.8605    -6.8559E-03
      14.81         4.8573    -6.7765E-03
      14.82         4.8541    -6.6980E-03
      14.83         4.8508    -6.6204E-03
      14.84         4.8476    -6.5437E-03
      14.85         4.8444    -6.4679E-03
      14.86         4.8412    -6.3930E-03
      14.87         4.8380    -6.3189E-03
      14.88         4.8348    -6.2457E-03
      14.89         4.8316    -6.1734E-03
      14.90         4.8284    -6.1019E-03
      14.91         4.8252    -6.0312E-03
      14.92         4.8220    -5.9614E-03
      14.93         4.8188    -5.8923E-03
      14.94         4.8156    -5.8240E-03
      14.95         4.8124    -5.7566E-03
      14.96         4.8093    -5.6899E-03
      14.97         4.8061    -5.6240E-03
      14.98         4.8029    -5.5588E-03
      14.99         4.7998    -5.4945E-03
      15.00         4.7966    -5.4308E-03
      15.01         4.7934    -5.3679E-03
      15.02         4.7903    -5.3057E-03
      15.03         4.7871    -5.2443E-03
      15.04         4.7840    -5.1835E-03
      15.05         4.7809    -5.1235E-03
      15.06         4.7777    -5.0641E-03
      15.07         4.7746    -5.0055E-03
      15.08         4.7714    -4.9475E-03
      15.09         4.7683    -4.8902E-03
      15.10         4.7652    -4.8335E-03
      15.11         4.7621    -4.7775E-03
      15.12         4.7590    -4.7222E-03
      15.13         4.7558    -4.6675E-03
      15.14         4.7527    -4.6134E-03
      15.15         4.7496    -4.5600E-03
      15.16         4.7465    -4.5071E-03
      15.17         4.7434    -4.4549E-03
      15.18         4.7403    -4.4033E-03
      15.19         4.7373    -4.3523E-03
      15.20         4.7342    -4.3019E-03
      15.21         4.7311    -4.2521E-03
      15.22         4.7280    -4.2028E-03
      15.23         4.7249    -4.1541E-03
      15.24         4.7219    -4.1060E-03
      15.25         4.7188    -4.0584E-03
      15.26         4.7157    -4.0114E-03
      15.27         4.7127    -3.9649E-03
      15.28         4.7096    -3.9190E-03
      15.29         4.7066    -3.8736E-03
      15.30         4.7035    -3.8287E-03
      15.31         4.7005    -3.7844E-03
      15.32         4.6974    -3.7405E-03
      15.33         4.6944    -3.6972E-03
      15.34         4.6913    -3.6544E-03
      15.35         4.6883    -3.6120E-03
      15.36         4.6853    -3.5702E-03
      15.37         4.6823    -3.5288E-03
      15.38         4.6792    -3.4879E-03
      15.39         4.6762    -3.4475E-03
      15.40         4.6732    -3.4076E-03
      15.41         4.6702    -3.3681E-03
      15.42         4.6672    -3.3291E-03
      15.43         4.6642    -3.2905E-03
      15.44         4.6612    -3.2524E-03
      15.45         4.6582    -3.2147E-03
      15.46         4.6552    -3.1775E-03
      15.47         4.6522    -3.1407E-03
      15.48         4.6492    -3.1043E-03
      15.49         4.6463    -3.0683E-03
      15.50         4.6433    -3.0328E-03
      15.51         4.6403    -2.9976E-03
      15.52         4.6373    -2.9629E-03
      15.53         4.6344    -2.9286E-03
      15.54         4.6314    -2.8947E-03
      15.55         4.6285    -2.8611E-03
      15.56         4.6255    -2.8280E-03
      15.57         4.6226    -2.7952E-03
      15.58         4.6196    -2.7628E-03
      15.59         4.6167    -2.7308E-03
      15.60         4.6137    -2.6992E-03
      15.61         4.6108    -2.6679E-03
      15.62         4.6078    -2.6370E-03
      15.63         4.6049    -2.6064E-03
      15.64         4.6020    -2.5763E-03
      15.65         4.5991    -2.5464E-03
      15.66         4.5961    -2.5169E-03
      15.67         4.5932    -2.4877E-03
      15.68         4.5903    -2.4589E-03
      15.69         4.5874    -2.4304E-03
      15.70         4.5845    -2.4023E-03
      15.71         4.5816    -2.3744E-03
      15.72         4.5787    -2.3469E-03
      15.73         4.5758    -2.3197E-03
      15.74         4.5729    -2.2929E-03
      15.75         4.5700    -2.2663E-03
      15.76         4.5671    -2.2400E-03
      15.77         4.5643    -2.2141E-03
      15.78         4.5614    -2.1884E-03
      15.79         4.5585    -2.1631E-03
      15.80         4.5556    -2.1380E-03
      15.81         4.5528    -2.1133E-03
      15.82         4.5499    -2.0888E-03
      15.83         4.5470    -2.0646E-03
      15.84         4.5442    -2.0406E-03
      15.85         4.5413    -2.0170E-03
      15.86         4.5385    -1.9936E-03
      15.87         4.5356    -1.9705E-03
      15.88         4.5328    -1.9477E-03
      15.89         4.5300    -1.9251E-03
      15.90         4.5271    -1.9028E-03
      15.91         4.5243    -1.8808E-03
      15.92         4.5215    -1.8590E-03
      15.93         4.5186    -1.8375E-03
      15.94         4.5158    -1.8162E-03
      15.95         4.5130    -1.7951E-03
      15.96         4.5102    -1.7743E-03
      15.97         4.5074    -1.7538E-03
      15.98         4.5046    -1.7335E-03
      15.99         4.5017    -1.7134E-03
      16.00         4.4989    -1.6935E-03
      16.01         4.4961    -1.6739E-03
      16.02         4.4934    -1.6545E-03
      16.03         4.4906    -1.6353E-03
      16.04         4.4878    -1.6164E-03
      16.05         4.4850    -1.5977E-03
      16.06         4.4822    -1.5791E-03
      16.07         4.4794    -1.5608E-03
      16.08         4.4766    -1.5428E-03
      16.09         4.4739    -1.5249E-03
      16.10         4.4711    -1.5072E-03
      16.11         4.4683    -1.4898E-03
      16.12         4.4656    -1.4725E-03
      16.13         4.4628    -1.4554E-03
      16.14         4.4601    -1.4386E-03
      16.15         4.4573    -1.4219E-03
      16.16         4.4546    -1.4054E-03
      16.17         4.4518    -1.3891E-03
      16.18         4.4491    -1.3731E-03
      16.19         4.4463    -1.3571E-03
      16.20         4.4436    -1.3414E-03
      16.21         4.4409    -1.3259E-03
      16.22         4.4381    -1.3105E-03
      16.23         4.4354    -1.2953E-03
      16.24         4.4327    -1.2803E-03
      16.25         4.4300    -1.2655E-03
      16.26         4.4273    -1.2508E-03
      16.27         4.4245    -1.2363E-03
      16.28         4.4218    -1.2220E-03
      16.29         4.4191    -1.2078E-03
      16.30         4.4164    -1.1939E-03
      16.31         4.4137    -1.1800E-03
      16.32         4.4110    -1.1663E-03
      16.33         4.4083    -1.1528E-03
      16.34         4.4056    -1.1395E-03
      16.35         4.4030    -1.1263E-03
      16.36         4.4003    -1.1132E-03
      16.37         4.3976    -1.1003E-03
      16.38         4.3949    -1.0876E-03
      16.39         4.3922    -1.0750E-03
      16.40         4.3896    -1.0625E-03
      16.41         4.3869    -1.0502E-03
      16.42         4.3842    -1.0380E-03
      16.43         4.3816    -1.0260E-03
      16.44         4.3789    -1.0141E-03
      16.45         4.3763    -1.0024E-03
      16.46         4.3736    -9.9076E-04
      16.47         4.3710    -9.7928E-04
      16.48         4.3683    -9.6793E-04
      16.49         4.3657    -9.5672E-04
      16.50         4.3630    -9.4563E-04
      16.51         4.3604    -9.3468E-04
      16.52         4.3578    -9.2385E-04
      16.53         4.3551    -9.1314E-04
      16.54         4.3525    -9.0256E-04
      16.55         4.3499    -8.9210E-04
      16.56         4.3473    -8.8177E-04
      16.57         4.3446    -8.7155E-04
      16.58         4.3420    -8.6145E-04
      16.59         4.3394    -8.5147E-04
      16.60         4.3368    -8.4161E-04
      16.61         4.3342    -8.3185E-04
      16.62         4.3316    -8.2222E-04
      16.63         4.3290    -8.1269E-04
      16.64         4.3264    -8.0327E-04
      16.65         4.3238    -7.9396E-04
      16.66         4.3212    -7.8476E-04
      16.67         4.3186    -7.7567E-04
      16.68         4.3160    -7.6668E-04
      16.69         4.3135    -7.5780E-04
      16.70         4.3109    -7.4902E-04
      16.71         4.3083    -7.4034E-04
      16.72         4.3057    -7.3176E-04
      16.73         4.3032    -7.2328E-04
      16.74         4.3006    -7.1490E-04
      16.75         4.2980    -7.0662E-04
      16.76         4.2955    -6.9843E-04
      16.77         4.2929    -6.9034E-04
      16.78         4.2904    -6.8234E-04
      16.79         4.2878    -6.7444E-04
      16.80         4.2853    -6.6662E-04
      16.81         4.2827    -6.5890E-04
      16.82         4.2802    -6.5126E-04
      16.83         4.2776    -6.4372E-04
      16.84         4.2751    -6.3626E-04
      16.85         4.2726    -6.2888E-04
      16.86         4.2700    -6.2160E-04
      16.87         4.2675    -6.1440E-04
      16.88         4.2650    -6.0728E-04
      16.89         4.2625    -6.0024E-04
      16.90         4.2599    -5.9329E-04
      16.91         4.2574    -5.8641E-04
      16.92         4.2549    -5.7962E-04
      16.93         4.2524    -5.7290E-04
      16.94         4.2499    -5.6626E-04
      16.95         4.2474    -5.5970E-04
      16.96         4.2449    -5.5322E-04
      16.97         4.2424    -5.4681E-04
      16.98         4.2399    -5.4047E-04
      16.99         4.2374    -5.3421E-04
      17.00         4.2349    -5.2802E-04
      17.01         4.2324    -5.2190E-04
      17.02         4.2300    -5.1585E-04
      17.03         4.2275    -5.0987E-04
      17.04         4.2250    -5.0397E-04
      17.05         4.2225    -4.9813E-04
      17.06         4.2200    -4.9236E-04
      17.07         4.2176    -4.8665E-04
      17.08         4.2151    -4.8101E-04
      17.09         4.2126    -4.7544E-04
      17.10         4.2102    -4.6993E-04
      17.11         4.2077    -4.6448E-04
      17.12         4.2053    -4.5910E-04
      17.13         4.2028    -4.5378E-04
      17.14         4.2004    -4.4852E-04
      17.15         4.1979    -4.4333E-04
      17.16         4.1955    -4.3819E-04
      17.17         4.1930    -4.3311E-04
      17.18         4.1906    -4.2809E-04
      17.19         4.1882    -4.2313E-04
      17.20         4.1857    -4.1823E-04
      17.21         4.1833    -4.1339E-04
      17.22         4.1809    -4.0860E-04
      17.23         4.1785    -4.0386E-04
      17.24         4.1760    -3.9918E-04
      17.25         4.1736    -3.9456E-04
      17.26         4.1712    -3.8998E-04
      17.27         4.1688    -3.8547E-04
      17.28         4.1664    -3.8100E-04
      17.29         4.1640    -3.7658E-04
      17.30         4.1616    -3.7222E-04
      17.31         4.1592    -3.6791E-04
      17.32         4.1568    -3.6365E-04
      17.33         4.1544    -3.5943E-04
      17.34         4.1520    -3.5527E-04
      17.35         4.1496    -3.5115E-04
      17.36         4.1472    -3.4708E-04
      17.37         4.1448    -3.4306E-04
      17.38         4.1424    -3.3908E-04
      17.39         4.1400    -3.3516E-04
      17.40         4.1377    -3.3127E-04
      17.41         4.1353    -3.2743E-04
      17.42         4.1329    -3.2364E-04
      17.43         4.1306    -3.1989E-04
      17.44         4.1282    -3.1618E-04
      17.45         4.1258    -3.1252E-04
      17.46         4.1235    -3.0890E-04
      17.47         4.1211    -3.0532E-04
      17.48         4.1187    -3.0178E-04
      17.49         4.1164    -2.9828E-04
      17.50         4.1140    -2.9483E-04
      17.51         4.1117    -2.9141E-04
      17.52         4.1093    -2.8804E-04
      17.53         4.1070    -2.8470E-04
      17.54         4.1047    -2.8140E-04
      17.55         4.1023    -2.7814E-04
      17.56         4.1000    -2.7492E-04
      17.57         4.0977    -2.7173E-04
      17.58         4.0953    -2.6858E-04
      17.59         4.0930    -2.6547E-04
      17.60         4.0907    -2.6239E-04
      17.61         4.0884    -2.5935E-04
      17.62         4.0860    -2.5635E-04
      17.63         4.0837    -2.5338E-04
      17.64         4.0814    -2.5044E-04
      17.65         4.0791    -2.4754E-04
      17.66         4.0768    -2.4467E-04
      17.67         4.0745    -2.4184E-04
      17.68         4.0722    -2.3903E-04
      17.69         4.0699    -2.3626E-04
      17.70         4.0676    -2.3353E-04
      17.71         4.0653    -2.3082E-04
      17.72         4.0630    -2.2815E-04
      17.73         4.0607    -2.2550E-04
      17.74         4.0584    -2.2289E-04
      17.75         4.0561    -2.2031E-04
      17.76         4.0539    -2.1775E-04
      17.77         4.0516    -2.1523E-04
      17.78         4.0493    -2.1274E-04
      17.79         4.0470    -2.1027E-04
      17.80         4.0447    -2.0784E-04
      17.81         4.0425    -2.0543E-04
      17.82         4.0402    -2.0305E-04
      17.83         4.0379    -2.0069E-04
      17.84         4.0357    -1.9837E-04
      17.85         4.0334    -1.9607E-04
      17.86         4.0312    -1.9380E-04
      17.87         4.0289    -1.9155E-04
      17.88         4.0267    -1.8933E-04
      17.89         4.0244    -1.8714E-04
      17.90         4.0222    -1.8497E-04
      17.91         4.0199    -1.8283E-04
      17.92         4.0177    -1.8071E-04
      17.93         4.0154    -1.7862E-04
      17.94         4.0132    -1.7655E-04
      17.95         4.0110    -1.7450E-04
      17.96         4.0087    -1.7248E-04
      17.97         4.0065    -1.7048E-04
      17.98         4.0043    -1.6850E-04
      17.99         4.0020    -1.6655E-04
      18.00         3.9998    -1.6462E-04
      18.01         3.9976    -1.6271E-04
      18.02         3.9954    -1.6083E-04
      18.03         3.9932    -1.5897E-04
      18.04         3.9910    -1.5712E-04
      18.05         3.9887    -1.5530E-04
      18.06         3.9865    -1.5350E-04
      18.07         3.9843    -1.5172E-04
      18.08         3.9821    -1.4997E-04
      18.09         3.9799    -1.4823E-04
      18.10         3.9777    -1.4651E-04
      18.11         3.9755    -1.4481E-04
      18.12         3.9733    -1.4314E-04
      18.13         3.9712    -1.4148E-04
      18.14         3.9690    -1.3984E-04
      18.15         3.9668    -1.3822E-04
      18.16         3.9646    -1.3662E-04
      18.17         3.9624    -1.3503E-04
      18.18         3.9602    -1.3347E-04
      18.19         3.9581    -1.3192E-04
      18.20         3.9559    -1.3039E-04
      18.21         3.9537    -1.2888E-04
      18.22         3.9515    -1.2739E-04
      18.23         3.9494    -1.2591E-04
      18.24         3.9472    -1.2445E-04
      18.25         3.9451    -1.2301E-04
      18.26         3.9429    -1.2159E-04
      18.27         3.9407    -1.2018E-04
      18.28         3.9386    -1.1878E-04
      18.29         3.9364    -1.1741E-04
      18.30         3.9343    -1.1605E-04
      18.31         3.9321    -1.1470E-04
      18.32         3.9300    -1.1337E-04
      18.33         3.9278    -1.1206E-04
      18.34         3.9257    -1.1076E-04
      18.35         3.9236    -1.0948E-04
      18.36         3.9214    -1.0821E-04
      18.37         3.9193    -1.0696E-04
      18.38         3.9172    -1.0572E-04
      18.39         3.9150    -1.0449E-04
      18.40         3.9129    -1.0328E-04
      18.41         3.9108    -1.0208E-04
      18.42         3.9087    -1.0090E-04
      18.43         3.9065    -9.9732E-05
      18.44         3.9044    -9.8576E-05
      18.45         3.9023    -9.7434E-05
      18.46         3.9002    -9.6305E-05
      18.47         3.8981    -9.5189E-05
      18.48         3.8960    -9.4086E-05
      18.49         3.8939    -9.2996E-05
      18.50         3.8918    -9.1919E-05
      18.51         3.8897    -9.0853E-05
      18.52         3.8876    -8.9801E-05
      18.53         3.8855    -8.8760E-05
      18.54         3.8834    -8.7732E-05
      18.55         3.8813    -8.6715E-05
      18.56         3.8792    -8.5710E-05
      18.57         3.8771    -8.4717E-05
      18.58         3.8750    -8.3736E-05
      18.59         3.8729    -8.2765E-05
      18.60         3.8708    -8.1806E-05
      18.61         3.8688    -8.0858E-05
      18.62         3.8667    -7.9921E-05
      18.63         3.8646    -7.8995E-05
      18.64         3.8625    -7.8080E-05
      18.65         3.8605    -7.7175E-05
      18.66         3.8584    -7.6281E-05
      18.67         3.8563    -7.5397E-05
      18.68         3.8543    -7.4523E-05
      18.69         3.8522    -7.3660E-05
      18.70         3.8501    -7.2806E-05
      18.71         3.8481    -7.1963E-05
      18.72         3.8460    -7.1129E-05
      18.73         3.8440    -7.0305E-05
      18.74         3.8419    -6.9490E-05
      18.75         3.8399    -6.8685E-05
      18.76         3.8378    -6.7889E-05
      18.77         3.8358    -6.7102E-05
      18.78         3.8337    -6.6325E-05
      18.79         3.8317    -6.5556E-05
      18.80         3.8297    -6.4797E-05
      18.81         3.8276    -6.4046E-05
      18.82         3.8256    -6.3304E-05
      18.83         3.8236    -6.2570E-05
      18.84         3.8215    -6.1845E-05
      18.85         3.8195    -6.1129E-05
      18.86         3.8175    -6.0420E-05
      18.87         3.8155    -5.9720E-05
      18.88         3.8134    -5.9028E-05
      18.89         3.8114    -5.8344E-05
      18.90         3.8094    -5.7668E-05
      18.91         3.8074    -5.7000E-05
      18.92         3.8054    -5.6339E-05
      18.93         3.8034    -5.5687E-05
      18.94         3.8014    -5.5041E-05
      18.95         3.7994    -5.4404E-05
      18.96         3.7974    -5.3773E-05
      18.97         3.7954    -5.3150E-05
      18.98         3.7934    -5.2534E-05
      18.99         3.7914    -5.1925E-05
      19.00         3.7894    -5.1324E-05
      19.01         3.7874    -5.0729E-05
      19.02         3.7854    -5.0141E-05
      19.03         3.7834    -4.9560E-05
      19.04         3.7814    -4.8986E-05
      19.05         3.7794    -4.8418E-05
      19.06         3.7774    -4.7857E-05
      19.07         3.7755    -4.7303E-05
      19.08         3.7735    -4.6755E-05
      19.09         3.7715    -4.6213E-05
      19.10         3.7695    -4.5677E-05
      19.11         3.7675    -4.5148E-05
      19.12         3.7656    -4.4625E-05
      19.13         3.7636    -4.4108E-05
      19.14         3.7616    -4.3597E-05
      19.15         3.7597    -4.3092E-05
      19.16         3.7577    -4.2592E-05
      19.17         3.7558    -4.2099E-05
      19.18         3.7538    -4.1611E-05
      19.19         3.7518    -4.1129E-05
      19.20         3.7499    -4.0652E-05
      19.21         3.7479    -4.0181E-05
      19.22         3.7460    -3.9716E-05
      19.23         3.7440    -3.9255E-05
      19.24         3.7421    -3.8801E-05
      19.25         3.7402    -3.8351E-05
      19.26         3.7382    -3.7907E-05
      19.27         3.7363    -3.7467E-05
      19.28         3.7343    -3.7033E-05
      19.29         3.7324    -3.6604E-05
      19.30         3.7305    -3.6180E-05
      19.31         3.7285    -3.5761E-05
      19.32         3.7266    -3.5346E-05
      19.33         3.7247    -3.4937E-05
      19.34         3.7227    -3.4532E-05
      19.35         3.7208    -3.4132E-05
      19.36         3.7189    -3.3736E-05
      19.37         3.7170    -3.3345E-05
      19.38         3.7151    -3.2959E-05
      19.39         3.7132    -3.2577E-05
      19.40         3.7112    -3.2200E-05
      19.41         3.7093    -3.1827E-05
      19.42         3.7074    -3.1458E-05
      19.43         3.7055    -3.1093E-05
      19.44         3.7036    -3.0733E-05
      19.45         3.7017    -3.0377E-05
      19.46         3.6998    -3.0025E-05
      19.47         3.6979    -2.9677E-05
      19.48         3.6960    -2.9333E-05
      19.49         3.6941    -2.8993E-05
      19.50         3.6922    -2.8657E-05
      19.51         3.6903    -2.8325E-05
      19.52         3.6884    -2.7997E-05
      19.53         3.6865    -2.7673E-05
      19.54         3.6846    -2.7352E-05
      19.55         3.6828    -2.7035E-05
      19.56         3.6809    -2.6722E-05
      19.57         3.6790    -2.6412E-05
      19.58         3.6771    -2.6106E-05
      19.59         3.6752    -2.5804E-05
      19.60         3.6734    -2.5505E-05
      19.61         3.6715    -2.5209E-05
      19.62         3.6696    -2.4917E-05
      19.63         3.6678    -2.4628E-05
      19.64         3.6659    -2.4343E-05
      19.65         3.6640    -2.4061E-05
      19.66         3.6622    -2.3782E-05
      19.67         3.6603    -2.3506E-05
      19.68         3.6584    -2.3234E-05
      19.69         3.6566    -2.2965E-05
      19.70         3.6547    -2.2699E-05
      19.71         3.6529    -2.2436E-05
      19.72         3.6510    -2.2176E-05
      19.73         3.6492    -2.1919E-05
      19.74         3.6473    -2.1665E-05
      19.75         3.6455    -2.1414E-05
      19.76         3.6436    -2.1166E-05
      19.77         3.6418    -2.0920E-05
      19.78         3.6399    -2.0678E-05
      19.79         3.6381    -2.0438E-05
      19.80         3.6363    -2.0201E-05
      19.81         3.6344    -1.9967E-05
      19.82         3.6326    -1.9736E-05
      19.83         3.6308    -1.9507E-05
      19.84         3.6289    -1.9281E-05
      19.85         3.6271    -1.9058E-05
      19.86         3.6253    -1.8837E-05
      19.87         3.6235    -1.8619E-05
      19.88         3.6216    -1.8403E-05
      19.89         3.6198    -1.8190E-05
      19.90         3.6180    -1.7979E-05
      19.91         3.6162    -1.7771E-05
      19.92         3.6144    -1.7565E-05
      19.93         3.6125    -1.7361E-05
      19.94         3.6107    -1.7160E-05
      19.95         3.6089    -1.6961E-05
      19.96         3.6071    -1.6765E-05
      19.97         3.6053    -1.6570E-05
      19.98         3.6035    -1.6378E-05
      19.99         3.6017    -1.6189E-05
      20.00         3.5999    -1.6001E-05
      20.01         3.5981    -1.5816E-05
      20.02         3.5963    -1.5632E-05
      20.03         3.5945    -1.5451E-05
      20.04         3.5927    -1.5272E-05
      20.05         3.5909    -1.5095E-05
      20.06         3.5891    -1.4920E-05
      20.07         3.5874    -1.4747E-05
      20.08         3.5856    -1.4577E-05
      20.09         3.5838    -1.4408E-05
      20.10         3.5820    -1.4241E-05
      20.11         3.5802    -1.4076E-05
      20.12         3.5784    -1.3913E-05
      20.13         3.5767    -1.3751E-05
      20.14         3.5749    -1.3592E-05
      20.15         3.5731    -1.3435E-05
      20.16         3.5713    -1.3279E-05
      20.17         3.5696    -1.3125E-05
      20.18         3.5678    -1.2973E-05
      20.19         3.5660    -1.2823E-05
      20.20         3.5643    -1.2674E-05
      20.21         3.5625    -1.2527E-05
      20.22         3.5607    -1.2382E-05
      20.23         3.5590    -1.2239E-05
      20.24         3.5572    -1.2097E-05
      20.25         3.5555    -1.1957E-05
      20.26         3.5537    -1.1818E-05
      20.27         3.5520    -1.1681E-05
      20.28         3.5502    -1.1546E-05
      20.29         3.5485    -1.1412E-05
      20.30         3.5467    -1.1280E-05
      20.31         3.5450    -1.1149E-05
      20.32         3.5432    -1.1020E-05
      20.33         3.5415    -1.0892E-05
      20.34         3.5397    -1.0766E-05
      20.35         3.5380    -1.0641E-05
      20.36         3.5363    -1.0518E-05
      20.37         3.5345    -1.0396E-05
      20.38         3.5328    -1.0276E-05
      20.39         3.5311    -1.0156E-05
      20.40         3.5293    -1.0039E-05
      20.41         3.5276    -9.9225E-06
      20.42         3.5259    -9.8075E-06
      20.43         3.5241    -9.6938E-06
      20.44         3.5224    -9.5815E-06
      20.45         3.5207    -9.4705E-06
      20.46         3.5190    -9.3607E-06
      20.47         3.5173    -9.2523E-06
      20.48         3.5155    -9.1451E-06
      20.49         3.5138    -9.0391E-06
      20.50         3.5121    -8.9344E-06
      20.51         3.5104    -8.8308E-06
      20.52         3.5087    -8.7285E-06
      20.53         3.5070    -8.6274E-06
      20.54         3.5053    -8.5274E-06
      20.55         3.5036    -8.4286E-06
      20.56         3.5019    -8.3309E-06
      20.57         3.5002    -8.2344E-06
      20.58         3.4985    -8.1390E-06
      20.59         3.4968    -8.0447E-06
      20.60         3.4951    -7.9515E-06
      20.61         3.4934    -7.8593E-06
      20.62         3.4917    -7.7683E-06
      20.63         3.4900    -7.6782E-06
      20.64         3.4883    -7.5893E-06
      20.65         3.4866    -7.5013E-06
      20.66         3.4849    -7.4144E-06
      20.67         3.4832    -7.3285E-06
      20.68         3.4815    -7.2436E-06
      20.69         3.4799    -7.1596E-06
      20.70         3.4782    -7.0767E-06
      20.71         3.4765    -6.9947E-06
      20.72         3.4748    -6.9136E-06
      20.73         3.4731    -6.8335E-06
      20.74         3.4715    -6.7543E-06
      20.75         3.4698    -6.6761E-06
      20.76         3.4681    -6.5987E-06
      20.77         3.4665    -6.5223E-06
      20.78         3.4648    -6.4467E-06
      20.79         3.4631    -6.3720E-06
      20.80         3.4615    -6.2981E-06
      20.81         3.4598    -6.2252E-06
      20.82         3.4581    -6.1530E-06
      20.83         3.4565    -6.0817E-06
      20.84         3.4548    -6.0113E-06
      20.85         3.4532    -5.9416E-06
      20.86         3.4515    -5.8728E-06
      20.87         3.4498    -5.8047E-06
      20.88         3.4482    -5.7375E-06
      20.89         3.4465    -5.6710E-06
      20.90         3.4449    -5.6053E-06
      20.91         3.4432    -5.5403E-06
      20.92         3.4416    -5.4761E-06
      20.93         3.4400    -5.4127E-06
      20.94         3.4383    -5.3499E-06
      20.95         3.4367    -5.2879E-06
      20.96         3.4350    -5.2267E-06
      20.97         3.4334    -5.1661E-06
      20.98         3.4318    -5.1062E-06
      20.99         3.4301    -5.0471E-06
      21.00         3.4285    -4.9886E-06
      21.01         3.4269    -4.9308E-06
      21.02         3.4252    -4.8737E-06
      21.03         3.4236    -4.8172E-06
      21.04         3.4220    -4.7614E-06
      21.05         3.4203    -4.7062E-06
      21.06         3.4187    -4.6517E-06
      21.07         3.4171    -4.5978E-06
      21.08         3.4155    -4.5445E-06
      21.09         3.4139    -4.4918E-06
      21.10         3.4122    -4.4398E-06
      21.11         3.4106    -4.3883E-06
      21.12         3.4090    -4.3375E-06
      21.13         3.4074    -4.2872E-06
      21.14         3.4058    -4.2375E-06
      21.15         3.4042    -4.1884E-06
      21.16         3.4026    -4.1399E-06
      21.17         3.4010    -4.0919E-06
      21.18         3.3993    -4.0445E-06
      21.19         3.3977    -3.9977E-06
      21.20         3.3961    -3.9513E-06
      21.21         3.3945    -3.9056E-06
      21.22         3.3929    -3.8603E-06
      21.23         3.3913    -3.8156E-06
      21.24         3.3897    -3.7714E-06
      21.25         3.3882    -3.7277E-06
      21.26         3.3866    -3.6845E-06
      21.27         3.3850    -3.6418E-06
      21.28         3.3834    -3.5996E-06
      21.29         3.3818    -3.5579E-06
      21.30         3.3802    -3.5166E-06
      21.31         3.3786    -3.4759E-06
      21.32         3.3770    -3.4356E-06
      21.33         3.3754    -3.3958E-06
      21.34         3.3739    -3.3565E-06
      21.35         3.3723    -3.3176E-06
      21.36         3.3707    -3.2791E-06
      21.37         3.3691    -3.2411E-06
      21.38         3.3676    -3.2036E-06
      21.39         3.3660    -3.1664E-06
      21.40         3.3644    -3.1298E-06
      21.41         3.3628    -3.0935E-06
      21.42         3.3613    -3.0576E-06
      21.43         3.3597    -3.0222E-06
      21.44         3.3581    -2.9872E-06
      21.45         3.3566    -2.9526E-06
      21.46         3.3550    -2.9184E-06
      21.47         3.3534    -2.8846E-06
      21.48         3.3519    -2.8511E-06
      21.49         3.3503    -2.8181E-06
      21.50         3.3488    -2.7854E-06
      21.51         3.3472    -2.7532E-06
      21.52         3.3456    -2.7213E-06
      21.53         3.3441    -2.6897E-06
      21.54         3.3425    -2.6586E-06
      21.55         3.3410    -2.6278E-06
      21.56         3.3394    -2.5973E-06
      21.57         3.3379    -2.5672E-06
      21.58         3.3363    -2.5375E-06
      21.59         3.3348    -2.5081E-06
      21.60         3.3333    -2.4790E-06
      21.61         3.3317    -2.4503E-06
      21.62         3.3302    -2.4219E-06
      21.63         3.3286    -2.3938E-06
      21.64         3.3271    -2.3661E-06
      21.65         3.3256    -2.3387E-06
      21.66         3.3240    -2.3116E-06
      21.67         3.3225    -2.2848E-06
      21.68         3.3210    -2.2583E-06
      21.69         3.3194    -2.2321E-06
      21.70         3.3179    -2.2063E-06
      21.71         3.3164    -2.1807E-06
      21.72         3.3148    -2.1554E-06
      21.73         3.3133    -2.1305E-06
      21.74         3.3118    -2.1058E-06
      21.75         3.3103    -2.0814E-06
      21.76         3.3087    -2.0573E-06
      21.77         3.3072    -2.0334E-06
      21.78         3.3057    -2.0099E-06
      21.79         3.3042    -1.9866E-06
      21.80         3.3027    -1.9636E-06
      21.81         3.3012    -1.9408E-06
      21.82         3.2996    -1.9183E-06
      21.83         3.2981    -1.8961E-06
      21.84         3.2966    -1.8741E-06
      21.85         3.2951    -1.8524E-06
      21.86         3.2936    -1.8309E-06
      21.87         3.2921    -1.8097E-06
      21.88         3.2906    -1.7887E-06
      21.89         3.2891    -1.7680E-06
      21.90         3.2876    -1.7475E-06
      21.91         3.2861    -1.7273E-06
      21.92         3.2846    -1.7073E-06
      21.93         3.2831    -1.6875E-06
      21.94         3.2816    -1.6679E-06
      21.95         3.2801    -1.6486E-06
      21.96         3.2786    -1.6295E-06
      21.97         3.2771    -1.6106E-06
      21.98         3.2756    -1.5920E-06
      21.99         3.2741    -1.5735E-06
      22.00         3.2726    -1.5553E-06
      22.01         3.2712    -1.5373E-06
      22.02         3.2697    -1.5194E-06
      22.03         3.2682    -1.5018E-06
      22.04         3.2667    -1.4844E-06
      22.05         3.2652    -1.4672E-06
      22.06         3.2637    -1.4502E-06
      22.07         3.2623    -1.4334E-06
      22.08         3.2608    -1.4168E-06
      22.09         3.2593    -1.4004E-06
      22.10         3.2578    -1.3842E-06
      22.11         3.2564    -1.3681E-06
      22.12         3.2549    -1.3523E-06
      22.13         3.2534    -1.3366E-06
      22.14         3.2520    -1.3211E-06
      22.15         3.2505    -1.3058E-06
      22.16         3.2490    -1.2907E-06
      22.17         3.2476    -1.2757E-06
      22.18         3.2461    -1.2609E-06
      22.19         3.2446    -1.2463E-06
      22.20         3.2432    -1.2319E-06
      22.21         3.2417    -1.2176E-06
      22.22         3.2402    -1.2035E-06
      22.23         3.2388    -1.1896E-06
      22.24         3.2373    -1.1758E-06
      22.25         3.2359    -1.1622E-06
      22.26         3.2344    -1.1487E-06
      22.27         3.2330    -1.1354E-06
      22.28         3.2315    -1.1222E-06
      22.29         3.2301    -1.1092E-06
      22.30         3.2286    -1.0964E-06
      22.31         3.2272    -1.0837E-06
      22.32         3.2257    -1.0711E-06
      22.33         3.2243    -1.0587E-06
      22.34         3.2228    -1.0464E-06
      22.35         3.2214    -1.0343E-06
      22.36         3.2200    -1.0223E-06
      22.37         3.2185    -1.0105E-06
      22.38         3.2171    -9.9876E-07
      22.39         3.2156    -9.8719E-07
      22.40         3.2142    -9.7575E-07
      22.41         3.2128    -9.6445E-07
      22.42         3.2113    -9.5327E-07
      22.43         3.2099    -9.4222E-07
      22.44         3.2085    -9.3131E-07
      22.45         3.2070    -9.2052E-07
      22.46         3.2056    -9.0985E-07
      22.47         3.2042    -8.9931E-07
      22.48         3.2028    -8.8889E-07
      22.49         3.2013    -8.7859E-07
      22.50         3.1999    -8.6841E-07
      22.51         3.1985    -8.5834E-07
      22.52         3.1971    -8.4840E-07
      22.53         3.1957    -8.3857E-07
      22.54         3.1942    -8.2885E-07
      22.55         3.1928    -8.1925E-07
      22.56         3.1914    -8.0975E-07
      22.57         3.1900    -8.0037E-07
      22.58         3.1886    -7.9110E-07
      22.59         3.1872    -7.8193E-07
      22.60         3.1858    -7.7287E-07
      22.61         3.1844    -7.6391E-07
      22.62         3.1829    -7.5506E-07
      22.63         3.1815    -7.4631E-07
      22.64         3.1801    -7.3766E-07
      22.65         3.1787    -7.2912E-07
      22.66         3.1773    -7.2067E-07
      22.67         3.1759    -7.1232E-07
      22.68         3.1745    -7.0406E-07
      22.69         3.1731    -6.9591E-07
      22.70         3.1717    -6.8784E-07
      22.71         3.1703    -6.7987E-07
      22.72         3.1689    -6.7199E-07
      22.73         3.1675    -6.6421E-07
      22.74         3.1662    -6.5651E-07
      22.75         3.1648    -6.4890E-07
      22.76         3.1634    -6.4138E-07
      22.77         3.1620    -6.3395E-07
      22.78         3.1606    -6.2661E-07
      22.79         3.1592    -6.1935E-07
      22.80         3.1578    -6.1217E-07
      22.81         3.1564    -6.0508E-07
      22.82         3.1551    -5.9806E-07
      22.83         3.1537    -5.9113E-07
      22.84         3.1523    -5.8428E-07
      22.85         3.1509    -5.7751E-07
      22.86         3.1495    -5.7082E-07
      22.87         3.1482    -5.6421E-07
      22.88         3.1468    -5.5767E-07
      22.89         3.1454    -5.5121E-07
      22.90         3.1440    -5.4482E-07
      22.91         3.1427    -5.3851E-07
      22.92         3.1413    -5.3227E-07
      22.93         3.1399    -5.2610E-07
      22.94         3.1385    -5.2000E-07
      22.95         3.1372    -5.1398E-07
      22.96         3.1358    -5.0802E-07
      22.97         3.1344    -5.0214E-07
      22.98         3.1331    -4.9632E-07
      22.99         3.1317    -4.9057E-07
      23.00         3.1304    -4.8488E-07
      23.01         3.1290    -4.7926E-07
      23.02         3.1276    -4.7371E-07
      23.03         3.1263    -4.6822E-07
      23.04         3.1249    -4.6280E-07
      23.05         3.1236    -4.5743E-07
      23.06         3.1222    -4.5213E-07
      23.07         3.1209    -4.4689E-07
      23.08         3.1195    -4.4172E-07
      23.09         3.1182    -4.3660E-07
      23.10         3.1168    -4.3154E-07
      23.11         3.1155    -4.2654E-07
      23.12         3.1141    -4.2160E-07
      23.13         3.1128    -4.1671E-07
      23.14         3.1114    -4.1188E-07
      23.15         3.1101    -4.0711E-07
      23.16         3.1087    -4.0239E-07
      23.17         3.1074    -3.9773E-07
      23.18         3.1061    -3.9312E-07
      23.19         3.1047    -3.8857E-07
      23.20         3.1034    -3.8406E-07
      23.21         3.1020    -3.7961E-07
      23.22         3.1007    -3.7521E-07
      23.23         3.0994    -3.7087E-07
      23.24         3.0980    -3.6657E-07
      23.25         3.0967    -3.6232E-07
      23.26         3.0954    -3.5812E-07
      23.27         3.0940    -3.5397E-07
      23.28         3.0927    -3.4987E-07
      23.29         3.0914    -3.4582E-07
      23.30         3.0901    -3.4181E-07
      23.31         3.0887    -3.3785E-07
      23.32         3.0874    -3.3394E-07
      23.33         3.0861    -3.3007E-07
      23.34         3.0848    -3.2624E-07
      23.35         3.0834    -3.2246E-07
      23.36         3.0821    -3.1872E-07
      23.37         3.0808    -3.1503E-07
      23.38         3.0795    -3.1138E-07
      23.39         3.0782    -3.0777E-07
      23.40         3.0768    -3.0421E-07
      23.41         3.0755    -3.0068E-07
      23.42         3.0742    -2.9720E-07
      23.43         3.0729    -2.9375E-07
      23.44         3.0716    -2.9035E-07
      23.45         3.0703    -2.8699E-07
      23.46         3.0690    -2.8366E-07
      23.47         3.0677    -2.8037E-07
      23.48         3.0664    -2.7712E-07
      23.49         3.0651    -2.7391E-07
      23.50         3.0638    -2.7074E-07
      23.51         3.0625    -2.6760E-07
      23.52         3.0612    -2.6450E-07
      23.53         3.0598    -2.6144E-07
      23.54         3.0585    -2.5841E-07
      23.55         3.0573    -2.5541E-07
      23.56         3.0560    -2.5245E-07
      23.57         3.0547    -2.4953E-07
      23.58         3.0534    -2.4664E-07
      23.59         3.0521    -2.4378E-07
      23.60         3.0508    -2.4095E-07
      23.61         3.0495    -2.3816E-07
      23.62         3.0482    -2.3540E-07
      23.63         3.0469    -2.3267E-07
      23.64         3.0456    -2.2998E-07
      23.65         3.0443    -2.2731E-07
      23.66         3.0430    -2.2468E-07
      23.67         3.0418    -2.2208E-07
      23.68         3.0405    -2.1950E-07
      23.69         3.0392    -2.1696E-07
      23.70         3.0379    -2.1445E-07
      23.71         3.0366    -2.1196E-07
      23.72         3.0353    -2.0950E-07
      23.73         3.0341    -2.0708E-07
      23.74         3.0328    -2.0468E-07
      23.75         3.0315    -2.0231E-07
      23.76         3.0302    -1.9996E-07
      23.77         3.0290    -1.9764E-07
      23.78         3.0277    -1.9535E-07
      23.79         3.0264    -1.9309E-07
      23.80         3.0251    -1.9085E-07
      23.81         3.0239    -1.8864E-07
      23.82         3.0226    -1.8646E-07
      23.83         3.0213    -1.8430E-07
      23.84         3.0201    -1.8216E-07
      23.85         3.0188    -1.8005E-07
      23.86         3.0175    -1.7796E-07
      23.87         3.0163    -1.7590E-07
      23.88         3.0150    -1.7386E-07
      23.89         3.0137    -1.7185E-07
      23.90         3.0125    -1.6986E-07
      23.91         3.0112    -1.6789E-07
      23.92         3.0100    -1.6594E-07
      23.93         3.0087    -1.6402E-07
      23.94         3.0074    -1.6212E-07
      23.95         3.0062    -1.6024E-07
      23.96         3.0049    -1.5838E-07
      23.97         3.0037    -1.5655E-07
      23.98         3.0024    -1.5474E-07
      23.99         3.0012    -1.5294E-07
      24.00         2.9999    -1.5117E-07
      24.01         2.9987    -1.4942E-07
      24.02         2.9974    -1.4769E-07
      24.03         2.9962    -1.4598E-07
      24.04         2.9949    -1.4428E-07
      24.05         2.9937    -1.4261E-07
      24.06         2.9924    -1.4096E-07
      24.07         2.9912    -1.3933E-07
      24.08         2.9900    -1.3771E-07
      24.09         2.9887    -1.3612E-07
      24.10         2.9875    -1.3454E-07
      24.11         2.9862    -1.3298E-07
      24.12         2.9850    -1.3144E-07
      24.13         2.9838    -1.2992E-07
      24.14         2.9825    -1.2841E-07
      24.15         2.9813    -1.2692E-07
      24.16         2.9801    -1.2545E-07
      24.17         2.9788    -1.2400E-07
      24.18         2.9776    -1.2256E-07
      24.19         2.9764    -1.2114E-07
      24.20         2.9751    -1.1974E-07
      24.21         2.9739    -1.1835E-07
      24.22         2.9727    -1.1698E-07
      24.23         2.9715    -1.1562E-07
      24.24         2.9702    -1.1428E-07
      24.25         2.9690    -1.1296E-07
      24.26         2.9678    -1.1165E-07
      24.27         2.9666    -1.1036E-07
      24.28         2.9653    -1.0908E-07
      24.29         2.9641    -1.0781E-07
      24.30         2.9629    -1.0657E-07
      24.31         2.9617    -1.0533E-07
      24.32         2.9605    -1.0411E-07
      24.33         2.9592    -1.0290E-07
      24.34         2.9580    -1.0171E-07
      24.35         2.9568    -1.0053E-07
      24.36         2.9556    -9.9368E-08
      24.37         2.9544    -9.8216E-08
      24.38         2.9532    -9.7078E-08
      24.39         2.9520    -9.5953E-08
      24.40         2.9507    -9.4841E-08
      24.41         2.9495    -9.3742E-08
      24.42         2.9483    -9.2656E-08
      24.43         2.9471    -9.1583E-08
      24.44         2.9459    -9.0521E-08
      24.45         2.9447    -8.9472E-08
      24.46         2.9435    -8.8436E-08
      24.47         2.9423    -8.7411E-08
      24.48         2.9411    -8.6398E-08
      24.49         2.9399    -8.5397E-08
      24.50         2.9387    -8.4407E-08
      24.51         2.9375    -8.3429E-08
      24.52         2.9363    -8.2463E-08
      24.53         2.9351    -8.1507E-08
      24.54         2.9339    -8.0563E-08
      24.55         2.9327    -7.9629E-08
      24.56         2.9315    -7.8707E-08
      24.57         2.9303    -7.7795E-08
      24.58         2.9291    -7.6893E-08
      24.59         2.9279    -7.6002E-08
      24.60         2.9268    -7.5121E-08
      24.61         2.9256    -7.4251E-08
      24.62         2.9244    -7.3391E-08
      24.63         2.9232    -7.2540E-08
      24.64         2.9220    -7.1700E-08
      24.65         2.9208    -7.0869E-08
      24.66         2.9196    -7.0048E-08
      24.67         2.9185    -6.9236E-08
      24.68         2.9173    -6.8434E-08
      24.69         2.9161    -6.7641E-08
      24.70         2.9149    -6.6857E-08
      24.71         2.9137    -6.6082E-08
      24.72         2.9126    -6.5317E-08
      24.73         2.9114    -6.4560E-08
      24.74         2.9102    -6.3812E-08
      24.75         2.9090    -6.3072E-08
      24.76         2.9078    -6.2341E-08
      24.77         2.9067    -6.1619E-08
      24.78         2.9055    -6.0905E-08
      24.79         2.9043    -6.0199E-08
      24.80         2.9032    -5.9502E-08
      24.81         2.9020    -5.8812E-08
      24.82         2.9008    -5.8131E-08
      24.83         2.8996    -5.7457E-08
      24.84         2.8985    -5.6791E-08
      24.85         2.8973    -5.6133E-08
      24.86         2.8961    -5.5483E-08
      24.87         2.8950    -5.4840E-08
      24.88         2.8938    -5.4205E-08
      24.89         2.8927    -5.3577E-08
      24.90         2.8915    -5.2956E-08
      24.91         2.8903    -5.2342E-08
      24.92         2.8892    -5.1736E-08
      24.93         2.8880    -5.1136E-08
      24.94         2.8869    -2.0514E-09
      24.95         2.8857    -2.0276E-09
      24.96         2.8845    -2.0041E-09
      24.97         2.8834    -1.9809E-09
      24.98         2.8822    -1.9579E-09
      24.99         2.8811    -1.9352E-09
      25.00         2.8799    -1.9128E-09
      25.01         2.8788    -1.8907E-09